"","X","subject","session","block","trial","stim_nr","operation","carry","O1","O2","CR","response","nr_reps","correct","RT","firstbp","lastbp","stimtime","valtime","nr_bp"
"1",2,"sub10",1,1,0,8,"-",0,68,12,56,56,1,1,4311,3509,3752,10298,14609,2
"2",3,"sub10",1,1,1,4,"+",1,39,25,64,64,1,1,4462,3898,4108,18868,23330,2
"3",4,"sub10",1,1,2,7,"+",1,48,24,72,72,1,1,4405,3701,4099,27582,31987,2
"5",6,"sub10",1,1,3,11,"-",0,49,17,32,32,2,1,5029,4574,4822,44352,49381,2
"6",7,"sub10",1,1,4,2,"+",0,58,21,79,79,1,1,4839,3707,4513,53639,58478,2
"7",8,"sub10",1,1,5,3,"+",0,45,34,79,79,1,1,3859,3269,3492,62737,66596,2
"8",9,"sub10",1,1,6,2,"+",0,58,21,79,79,1,1,3093,2535,2726,70850,73943,2
"9",10,"sub10",1,1,7,2,"+",0,58,21,79,79,1,1,2620,1789,2146,78204,80824,2
"10",11,"sub10",1,1,8,6,"+",1,43,19,62,62,1,1,4944,4530,4736,85084,90028,2
"11",12,"sub10",1,1,9,7,"+",1,48,24,72,72,1,1,4476,3930,4227,94287,98763,2
"12",13,"sub10",1,1,10,8,"-",0,68,12,56,56,1,1,3867,3408,3590,103026,106893,2
"13",14,"sub10",1,1,11,13,"-",1,52,13,39,39,1,1,4837,4104,4507,111151,115988,2
"14",15,"sub10",1,1,12,12,"-",1,74,35,39,39,1,1,5372,4749,4985,120249,125621,2
"15",16,"sub10",1,1,13,4,"+",1,39,25,64,64,1,1,3136,2619,2847,129881,133017,2
"16",17,"sub10",1,1,14,5,"+",1,54,17,71,71,1,1,4871,4299,4575,138224,143095,2
"17",18,"sub10",1,1,15,6,"+",1,43,19,62,62,1,1,3890,3472,3654,147357,151247,2
"18",19,"sub10",1,2,16,3,"+",0,45,34,79,79,1,1,3320,2621,2815,165354,168674,2
"19",20,"sub10",1,2,17,11,"-",0,49,17,32,32,1,1,3509,3118,3300,173800,177309,2
"20",21,"sub10",1,2,18,6,"+",1,43,19,62,62,1,1,2917,2535,2701,182393,185310,2
"21",22,"sub10",1,2,19,3,"+",0,45,34,79,79,1,1,2766,2269,2468,190435,193201,2
"22",23,"sub10",1,2,20,11,"-",0,49,17,32,32,1,1,2896,2548,2738,198228,201124,2
"23",24,"sub10",1,2,21,13,"-",1,52,13,39,39,1,1,3174,2646,2885,206127,209301,2
"24",25,"sub10",1,2,22,0,"+",0,53,21,74,74,1,1,4247,3829,4036,214852,219099,2
"25",26,"sub10",1,2,23,10,"-",0,63,12,51,51,1,1,3821,3497,3637,224245,228066,2
"26",27,"sub10",1,2,24,10,"-",0,63,12,51,51,1,1,3468,3164,3306,233473,236941,2
"27",28,"sub10",1,2,25,9,"-",0,86,41,45,45,1,1,4825,4491,4634,241765,246590,2
"28",29,"sub10",1,2,26,15,"-",1,65,29,36,36,1,1,4882,4406,4616,251528,256410,2
"29",30,"sub10",1,2,27,3,"+",0,45,34,79,79,1,1,3174,2748,2905,261597,264771,2
"30",31,"sub10",1,2,28,11,"-",0,49,17,32,32,1,1,3579,3230,3423,269575,273154,2
"31",32,"sub10",1,2,29,5,"+",1,54,17,71,71,1,1,4705,4218,4474,277920,282625,2
"32",33,"sub10",1,2,30,6,"+",1,43,19,62,62,1,1,4176,3818,4020,287442,291618,2
"33",34,"sub10",1,2,31,10,"-",0,63,12,51,51,1,1,3967,3295,3478,296506,300473,2
"34",35,"sub10",1,3,32,11,"-",0,49,17,32,32,1,1,3056,2724,2905,312562,315618,2
"35",36,"sub10",1,3,33,15,"-",1,65,29,36,36,1,1,4980,4587,4784,320867,325847,2
"36",37,"sub10",1,3,34,12,"-",1,74,35,39,39,1,1,4648,3382,4400,330892,335540,2
"37",38,"sub10",1,3,35,10,"-",0,63,12,51,51,1,1,2718,2385,2542,340818,343536,2
"38",39,"sub10",1,3,36,6,"+",1,43,19,62,62,1,1,3779,3462,3629,348658,352437,2
"39",40,"sub10",1,3,37,1,"+",0,43,14,57,57,1,1,4154,3312,3767,357527,361681,2
"40",41,"sub10",1,3,38,9,"-",0,86,41,45,45,1,1,5070,4733,4875,366731,371801,2
"41",42,"sub10",1,3,39,6,"+",1,43,19,62,62,1,1,3819,3523,3652,377113,380932,2
"42",43,"sub10",1,3,40,5,"+",1,54,17,71,71,1,1,5116,4660,4908,386043,391159,2
"43",44,"sub10",1,3,41,4,"+",1,39,25,64,64,1,1,2709,2364,2543,396228,398937,2
"44",45,"sub10",1,3,42,1,"+",0,43,14,57,57,1,1,2925,2518,2693,403583,406508,2
"45",46,"sub10",1,3,43,13,"-",1,52,13,39,39,1,1,4846,4369,4618,411721,416567,2
"46",47,"sub10",1,3,44,13,"-",1,52,13,39,39,1,1,1949,1518,1684,421625,423574,2
"47",48,"sub10",1,3,45,2,"+",0,58,21,79,79,1,1,3620,3255,3376,428526,432146,2
"48",49,"sub10",1,3,46,0,"+",0,53,21,74,74,1,1,4176,3786,3964,437420,441596,2
"49",50,"sub10",1,3,47,0,"+",0,53,21,74,74,1,1,1880,1314,1525,446556,448436,2
"50",51,"sub10",1,4,48,0,"+",0,53,21,74,74,1,1,2485,2136,2293,456760,459245,2
"52",53,"sub10",1,4,49,14,"-",1,86,18,68,68,2,1,4973,4583,4773,473900,478873,2
"53",54,"sub10",1,4,50,12,"-",1,74,35,39,39,1,1,4696,4220,4435,484037,488733,2
"54",55,"sub10",1,4,51,7,"+",1,48,24,72,72,1,1,4159,3557,3973,494179,498338,2
"55",56,"sub10",1,4,52,9,"-",0,86,41,45,45,1,1,2756,2430,2562,503520,506276,2
"56",57,"sub10",1,4,53,7,"+",1,48,24,72,72,1,1,3175,2635,2906,511223,514398,2
"57",58,"sub10",1,4,54,3,"+",0,45,34,79,79,1,1,3274,2831,3037,519223,522497,2
"58",59,"sub10",1,4,55,0,"+",0,53,21,74,74,1,1,2999,2544,2766,527364,530363,2
"59",60,"sub10",1,4,56,11,"-",0,49,17,32,32,1,1,4225,3925,4074,535442,539667,2
"60",61,"sub10",1,4,57,12,"-",1,74,35,39,39,1,1,3994,3602,3782,545653,549647,2
"61",62,"sub10",1,4,58,2,"+",0,58,21,79,79,1,1,3057,2716,2861,554811,557868,2
"62",63,"sub10",1,4,59,6,"+",1,43,19,62,62,1,1,3801,3537,3654,562726,566527,2
"63",64,"sub10",1,4,60,12,"-",1,74,35,39,39,1,1,3596,3169,3383,571823,575419,2
"64",65,"sub10",1,4,61,9,"-",0,86,41,45,45,1,1,1769,1420,1555,581229,582998,2
"65",66,"sub10",1,4,62,1,"+",0,43,14,57,57,1,1,3503,3023,3271,588179,591682,2
"66",67,"sub10",1,4,63,5,"+",1,54,17,71,71,1,1,3413,3006,3221,596793,600206,2
"67",68,"sub10",1,5,64,0,"+",0,53,21,74,74,1,1,2719,2291,2502,607897,610616,2
"68",69,"sub10",1,5,65,13,"-",1,52,13,39,39,1,1,3982,3436,3704,615763,619745,2
"69",70,"sub10",1,5,66,0,"+",0,53,21,74,74,1,1,2616,2271,2453,624782,627398,2
"70",71,"sub10",1,5,67,8,"-",0,68,12,56,56,1,1,3543,3219,3352,632469,636012,2
"71",72,"sub10",1,5,68,1,"+",0,43,14,57,57,1,1,3148,2794,2953,640874,644022,2
"73",74,"sub10",1,5,69,5,"+",1,54,17,71,71,2,1,5762,5355,5586,657852,663614,2
"74",75,"sub10",1,5,70,12,"-",1,74,35,39,39,1,1,4476,4082,4276,668725,673201,2
"75",76,"sub10",1,5,71,1,"+",0,43,14,57,57,1,1,2718,2315,2511,678399,681117,2
"76",77,"sub10",1,5,72,15,"-",1,65,29,36,36,1,1,5771,5434,5628,686078,691849,2
"77",78,"sub10",1,5,73,5,"+",1,54,17,71,71,1,1,4145,3754,3978,696642,700787,2
"78",79,"sub10",1,5,74,2,"+",0,58,21,79,79,1,1,4044,3713,3830,706164,710208,2
"79",80,"sub10",1,5,75,2,"+",0,58,21,79,79,1,1,1614,1225,1359,715177,716791,2
"80",81,"sub10",1,5,76,2,"+",0,58,21,79,79,1,1,1795,1190,1367,721662,723457,2
"81",82,"sub10",1,5,77,0,"+",0,53,21,74,74,1,1,4407,4058,4232,727719,732126,2
"82",83,"sub10",1,5,78,0,"+",0,53,21,74,74,1,1,1611,1217,1387,737524,739135,2
"83",84,"sub10",1,5,79,10,"-",0,63,12,51,51,1,1,2968,2627,2793,744010,746978,2
"84",85,"sub10",1,6,80,14,"-",1,86,18,68,68,1,1,4905,4375,4550,757833,762738,2
"85",86,"sub10",1,6,81,2,"+",0,58,21,79,79,1,1,2726,2385,2514,767736,770462,2
"86",87,"sub10",1,6,82,9,"-",0,86,41,45,45,1,1,2355,2053,2182,775571,777926,2
"87",88,"sub10",1,6,83,1,"+",0,43,14,57,57,1,1,3016,2683,2870,783403,786419,2
"88",89,"sub10",1,6,84,15,"-",1,65,29,36,36,1,1,4170,3812,3991,791143,795313,2
"89",90,"sub10",1,6,85,13,"-",1,52,13,39,39,1,1,4891,4514,4713,800818,805709,2
"90",91,"sub10",1,6,86,2,"+",0,58,21,79,79,1,1,3582,2879,2992,810753,814335,2
"91",92,"sub10",1,6,87,3,"+",0,45,34,79,79,1,1,2388,2014,2167,819010,821398,2
"92",93,"sub10",1,6,88,0,"+",0,53,21,74,74,1,1,2122,1695,1922,826355,828477,2
"93",94,"sub10",1,6,89,0,"+",0,53,21,74,74,1,1,1984,1573,1772,833336,835320,2
"94",95,"sub10",1,6,90,13,"-",1,52,13,39,39,1,1,3531,2500,2682,839995,843526,2
"95",96,"sub10",1,6,91,6,"+",1,43,19,62,62,1,1,3623,3269,3421,848254,851877,2
"96",97,"sub10",1,6,92,2,"+",0,58,21,79,79,1,1,3357,3036,3178,856548,859905,2
"97",98,"sub10",1,6,93,14,"-",1,86,18,68,68,1,1,4035,3747,3880,864858,868893,2
"98",99,"sub10",1,6,94,12,"-",1,74,35,39,39,1,1,3267,2901,3079,873768,877035,2
"99",100,"sub10",1,6,95,13,"-",1,52,13,39,39,1,1,2969,2615,2793,881730,884699,2
"100",101,"sub10",1,7,96,0,"+",0,53,21,74,74,1,1,2506,2173,2339,891562,894068,2
"101",102,"sub10",1,7,97,6,"+",1,43,19,62,62,1,1,3365,3060,3189,898772,902137,2
"102",103,"sub10",1,7,98,5,"+",1,54,17,71,71,1,1,4346,3932,4162,907478,911824,2
"103",104,"sub10",1,7,99,5,"+",1,54,17,71,71,1,1,1672,1294,1478,918089,919761,2
"105",106,"sub10",1,7,100,8,"-",0,68,12,56,56,2,1,2522,1932,2125,931845,934367,2
"106",107,"sub10",1,7,101,0,"+",0,53,21,74,74,1,1,2855,2485,2675,939748,942603,2
"107",108,"sub10",1,7,102,15,"-",1,65,29,36,36,1,1,4921,4564,4755,947413,952334,2
"109",110,"sub10",1,7,103,10,"-",0,63,12,51,51,2,1,2829,2505,2630,966322,969151,2
"110",111,"sub10",1,7,104,2,"+",0,58,21,79,79,1,1,2702,2361,2527,974281,976983,2
"111",112,"sub10",1,7,105,0,"+",0,53,21,74,74,1,1,2105,1769,1943,982059,984164,2
"112",113,"sub10",1,7,106,5,"+",1,54,17,71,71,1,1,2739,2365,2572,989008,991747,2
"113",114,"sub10",1,7,107,1,"+",0,43,14,57,57,1,1,2833,2464,2646,996509,999342,2
"114",115,"sub10",1,7,108,3,"+",0,45,34,79,79,1,1,3402,3056,3206,1004169,1007571,2
"115",116,"sub10",1,7,109,5,"+",1,54,17,71,71,1,1,3740,3391,3586,1012430,1016170,2
"116",117,"sub10",1,7,110,7,"+",1,48,24,72,72,1,1,3847,3416,3663,1020875,1024722,2
"118",119,"sub10",1,7,111,6,"+",1,43,19,62,62,2,1,3658,3390,3502,1038833,1042491,2
"119",120,"sub10",1,8,112,10,"-",0,63,12,51,51,1,1,3667,2782,3115,1049510,1053177,2
"120",121,"sub10",1,8,113,3,"+",0,45,34,79,79,1,1,2107,1761,1903,1057918,1060025,2
"121",122,"sub10",1,8,114,14,"-",1,86,18,68,68,1,1,3892,3519,3708,1064684,1068576,2
"122",123,"sub10",1,8,115,4,"+",1,39,25,64,64,1,1,3373,3028,3182,1073272,1076645,2
"124",125,"sub10",1,8,116,2,"+",0,58,21,79,79,2,1,771,455,588,1088849,1089620,2
"125",126,"sub10",1,8,117,1,"+",0,43,14,57,57,1,1,4251,3860,4051,1094653,1098904,2
"126",127,"sub10",1,8,118,4,"+",1,39,25,64,64,1,1,3818,3494,3626,1103625,1107443,2
"127",128,"sub10",1,8,119,4,"+",1,39,25,64,64,1,1,3887,3519,3680,1112197,1116084,2
"129",130,"sub10",1,8,120,8,"-",0,68,12,56,56,2,1,1853,1504,1653,1128520,1130373,2
"130",131,"sub10",1,8,121,13,"-",1,52,13,39,39,1,1,3283,2733,2989,1135151,1138434,2
"131",132,"sub10",1,8,122,12,"-",1,74,35,39,39,1,1,4232,3747,3954,1143294,1147526,2
"132",133,"sub10",1,8,123,8,"-",0,68,12,56,56,1,1,7422,2895,7018,1152530,1159952,3
"135",136,"sub10",1,8,125,6,"+",1,43,19,62,62,1,1,3193,2889,3025,1185554,1188747,2
"136",137,"sub10",1,8,126,8,"-",0,68,12,56,56,1,1,3422,3074,3223,1193537,1196959,2
"137",138,"sub10",1,8,127,9,"-",0,86,41,45,45,1,1,2208,1499,1649,1201591,1203799,2
"138",139,"sub10",1,9,128,4,"+",1,39,25,64,64,1,1,3202,2665,2860,1210749,1213951,2
"139",140,"sub10",1,9,129,4,"+",1,39,25,64,64,1,1,3813,3052,3288,1218689,1222502,2
"141",142,"sub10",1,9,130,11,"-",0,49,17,32,32,2,1,3958,3694,3827,1235045,1239003,2
"142",143,"sub10",1,9,131,8,"-",0,68,12,56,56,1,1,3160,2840,2980,1243978,1247138,2
"143",144,"sub10",1,9,132,3,"+",0,45,34,79,79,1,1,3341,3008,3133,1251875,1255216,2
"144",145,"sub10",1,9,133,10,"-",0,63,12,51,51,1,1,4036,2590,3080,1259864,1263900,2
"145",146,"sub10",1,9,134,4,"+",1,39,25,64,64,1,1,2294,2010,2142,1268691,1270985,2
"146",147,"sub10",1,9,135,7,"+",1,48,24,72,72,1,1,3602,3199,3426,1275534,1279136,2
"147",148,"sub10",1,9,136,9,"-",0,86,41,45,45,1,1,1685,1348,1477,1283825,1285510,2
"148",149,"sub10",1,9,137,1,"+",0,43,14,57,57,1,1,3002,2692,2834,1290150,1293152,2
"149",150,"sub10",1,9,138,1,"+",0,43,14,57,57,1,1,2179,1834,1999,1297714,1299893,2
"150",151,"sub10",1,9,139,9,"-",0,86,41,45,45,1,1,1686,1377,1506,1304585,1306271,2
"151",152,"sub10",1,9,140,7,"+",1,48,24,72,72,1,1,2770,2355,2602,1310967,1313737,2
"152",153,"sub10",1,9,141,4,"+",1,39,25,64,64,1,1,2894,2561,2690,1318315,1321209,2
"153",154,"sub10",1,9,142,13,"-",1,52,13,39,39,1,1,3516,3106,3325,1325866,1329382,2
"154",155,"sub10",1,9,143,2,"+",0,58,21,79,79,1,1,3349,3024,3158,1334071,1337420,2
"155",156,"sub10",1,10,144,12,"-",1,74,35,39,39,1,1,5111,4790,4952,1345970,1351081,2
"156",157,"sub10",1,10,145,8,"-",0,68,12,56,56,1,1,3227,2938,3067,1355860,1359087,2
"157",158,"sub10",1,10,146,11,"-",0,49,17,32,32,1,1,3411,3152,3285,1363799,1367210,2
"158",159,"sub10",1,10,147,2,"+",0,58,21,79,79,1,1,2143,1818,1964,1371891,1374034,2
"159",160,"sub10",1,10,148,12,"-",1,74,35,39,39,1,1,4984,4468,4707,1379234,1384218,2
"160",161,"sub10",1,10,149,1,"+",0,43,14,57,57,1,1,2487,2121,2483,1388911,1391398,3
"161",162,"sub10",1,10,150,15,"-",1,65,29,36,36,1,1,3084,2791,2970,1396022,1399106,2
"162",163,"sub10",1,10,151,13,"-",1,52,13,39,39,1,1,3479,3118,3300,1403946,1407425,2
"163",164,"sub10",1,10,152,5,"+",1,54,17,71,71,1,1,4194,3796,4007,1412201,1416395,2
"164",165,"sub10",1,10,153,14,"-",1,86,18,68,68,1,1,5466,3903,5317,1421077,1426543,3
"165",166,"sub10",1,10,154,14,"-",1,86,18,68,68,1,1,2319,1671,1849,1431760,1434079,2
"166",167,"sub10",1,10,155,5,"+",1,54,17,71,71,1,1,4715,4345,4560,1438972,1443687,2
"167",168,"sub10",1,10,156,3,"+",0,45,34,79,79,1,1,2761,2427,2561,1448379,1451140,2
"168",169,"sub10",1,10,157,13,"-",1,52,13,39,39,1,1,2851,2370,2603,1455845,1458696,2
"169",170,"sub10",1,10,158,6,"+",1,43,19,62,62,1,1,3325,3041,3177,1463614,1466939,2
"170",171,"sub10",1,10,159,10,"-",0,63,12,51,51,1,1,3106,2861,2957,1471762,1474868,2
"171",172,"sub10",1,11,160,14,"-",1,86,18,68,68,1,1,2374,2048,2206,1482787,1485161,2
"172",173,"sub10",1,11,161,1,"+",0,43,14,57,57,1,1,2549,2253,2386,1489840,1492389,2
"173",174,"sub10",1,11,162,15,"-",1,65,29,36,36,1,1,3243,2946,3096,1497066,1500309,2
"174",175,"sub10",1,11,163,10,"-",0,63,12,51,51,1,1,2504,2235,2356,1505018,1507522,2
"175",176,"sub10",1,11,164,7,"+",1,48,24,72,72,1,1,3402,2922,3170,1512227,1515629,2
"176",177,"sub10",1,11,165,7,"+",1,48,24,72,72,1,1,2326,1434,1738,1520323,1522649,2
"177",178,"sub10",1,11,166,1,"+",0,43,14,57,57,1,1,3567,3151,3367,1527220,1530787,2
"178",179,"sub10",1,11,167,11,"-",0,49,17,32,32,1,1,3623,3315,3431,1535414,1539037,2
"179",180,"sub10",1,11,168,13,"-",1,52,13,39,39,1,1,3247,2800,3030,1543678,1546925,2
"180",181,"sub10",1,11,169,5,"+",1,54,17,71,71,1,1,3889,3528,3743,1551659,1555548,2
"181",182,"sub10",1,11,170,5,"+",1,54,17,71,71,1,1,1989,1581,1788,1560127,1562116,2
"182",183,"sub10",1,11,171,3,"+",0,45,34,79,79,1,1,3631,2930,3350,1566698,1570329,2
"183",184,"sub10",1,11,172,0,"+",0,53,21,74,74,1,1,2937,2607,2769,1574957,1577894,2
"184",185,"sub10",1,11,173,3,"+",0,45,34,79,79,1,1,2532,2203,2345,1582460,1584992,2
"185",186,"sub10",1,11,174,9,"-",0,86,41,45,45,1,1,1767,1439,1572,1589710,1591477,2
"186",187,"sub10",1,11,175,6,"+",1,43,19,62,62,1,1,3166,2873,2999,1596273,1599439,2
"187",188,"sub10",1,12,176,0,"+",0,53,21,74,74,1,1,2581,2247,2430,1607135,1609716,2
"188",189,"sub10",1,12,177,0,"+",0,53,21,74,74,1,1,1785,1443,1625,1614331,1616116,2
"189",190,"sub10",1,12,178,4,"+",1,39,25,64,64,1,1,3534,3266,3391,1620911,1624445,2
"191",192,"sub10",1,12,179,6,"+",1,43,19,62,62,2,1,1197,815,1030,1638745,1639942,2
"192",193,"sub10",1,12,180,14,"-",1,86,18,68,68,1,1,2230,1819,2009,1644582,1646812,2
"193",194,"sub10",1,12,181,10,"-",0,63,12,51,51,1,1,3068,2465,2647,1651677,1654745,2
"194",195,"sub10",1,12,182,14,"-",1,86,18,68,68,1,1,1620,1295,1441,1659503,1661123,2
"195",196,"sub10",1,12,183,3,"+",0,45,34,79,79,1,1,2205,1884,2029,1665759,1667964,2
"196",197,"sub10",1,12,184,10,"-",0,63,12,51,51,1,1,2337,2060,2176,1672572,1674909,2
"197",198,"sub10",1,12,185,11,"-",0,49,17,32,32,1,1,2578,2306,2413,1679549,1682127,2
"198",199,"sub10",1,12,186,15,"-",1,65,29,36,36,1,1,4281,3985,4135,1686817,1691098,2
"199",200,"sub10",1,12,187,10,"-",0,63,12,51,51,1,1,2255,1974,2098,1695686,1697941,2
"200",201,"sub10",1,12,188,2,"+",0,58,21,79,79,1,1,2931,2629,2758,1702520,1705451,2
"201",202,"sub10",1,12,189,14,"-",1,86,18,68,68,1,1,1809,1476,1607,1710037,1711846,2
"202",203,"sub10",1,12,190,13,"-",1,52,13,39,39,1,1,3076,2693,2887,1716495,1719571,2
"203",204,"sub10",1,12,191,15,"-",1,65,29,36,36,1,1,5043,4775,4858,1724178,1729221,2
"204",205,"sub10",1,13,192,8,"-",0,68,12,56,56,1,1,4711,4447,4547,1737801,1742512,2
"205",206,"sub10",1,13,193,12,"-",1,74,35,39,39,1,1,3501,3094,3318,1747537,1751038,2
"206",207,"sub10",1,13,194,10,"-",0,63,12,51,51,1,1,2647,2391,2511,1756268,1758915,2
"207",208,"sub10",1,13,195,13,"-",1,52,13,39,39,1,1,4028,3692,3850,1763519,1767547,2
"208",209,"sub10",1,13,196,7,"+",1,48,24,72,72,1,1,3607,3086,3363,1772082,1775689,2
"209",210,"sub10",1,13,197,4,"+",1,39,25,64,64,1,1,3947,3674,3804,1780420,1784367,2
"210",211,"sub10",1,13,198,4,"+",1,39,25,64,64,1,1,3057,2764,2880,1789162,1792219,2
"211",212,"sub10",1,13,199,8,"-",0,68,12,56,56,1,1,3012,2730,2843,1796815,1799827,2
"212",213,"sub10",1,13,200,4,"+",1,39,25,64,64,1,1,2680,2383,2516,1804521,1807201,2
"213",214,"sub10",1,13,201,12,"-",1,74,35,39,39,1,1,2418,2081,2230,1811903,1814321,2
"214",215,"sub10",1,13,202,8,"-",0,68,12,56,56,1,1,2668,2392,2508,1819427,1822095,2
"215",216,"sub10",1,13,203,11,"-",0,49,17,32,32,1,1,3759,3471,3594,1827227,1830986,2
"216",217,"sub10",1,13,204,11,"-",0,49,17,32,32,1,1,1487,1206,1334,1835663,1837150,2
"217",218,"sub10",1,13,205,0,"+",0,53,21,74,74,1,1,2508,2222,2346,1841694,1844202,2
"218",219,"sub10",1,13,206,10,"-",0,63,12,51,51,1,1,2676,2428,2511,1848817,1851493,2
"219",220,"sub10",1,13,207,3,"+",0,45,34,79,79,1,1,2243,1946,2063,1856039,1858282,2
"220",221,"sub10",1,14,208,10,"-",0,63,12,51,51,1,1,2927,2649,2786,1864767,1867694,2
"221",222,"sub10",1,14,209,10,"-",0,63,12,51,51,1,1,1326,1056,1153,1872277,1873603,2
"222",223,"sub10",1,14,210,15,"-",1,65,29,36,36,1,1,4740,4435,4581,1878113,1882853,2
"223",224,"sub10",1,14,211,12,"-",1,74,35,39,39,1,1,1867,1558,1703,1887542,1889409,2
"224",225,"sub10",1,14,212,13,"-",1,52,13,39,39,1,1,3420,3111,3235,1894042,1897462,2
"225",226,"sub10",1,14,213,0,"+",0,53,21,74,74,1,1,2537,2167,2361,1902111,1904648,2
"226",227,"sub10",1,14,214,7,"+",1,48,24,72,72,1,1,3537,2951,3379,1909259,1912796,2
"227",228,"sub10",1,14,215,3,"+",0,45,34,79,79,1,1,2255,1951,2067,1917372,1919627,2
"228",229,"sub10",1,14,216,7,"+",1,48,24,72,72,1,1,3529,2890,3395,1924187,1927716,2
"229",230,"sub10",1,14,217,4,"+",1,39,25,64,64,1,1,2891,2587,2728,1932276,1935167,2
"230",231,"sub10",1,14,218,15,"-",1,65,29,36,36,1,1,4431,4142,4263,1939795,1944226,2
"231",232,"sub10",1,14,219,9,"-",0,86,41,45,45,1,1,1628,1344,1471,1948827,1950455,2
"232",233,"sub10",1,14,220,6,"+",1,43,19,62,62,1,1,4038,3782,3902,1955018,1959056,2
"233",234,"sub10",1,14,221,3,"+",0,45,34,79,79,1,1,2461,2182,2273,1963630,1966091,2
"234",235,"sub10",1,14,222,13,"-",1,52,13,39,39,1,1,3296,2962,3125,1970623,1973919,2
"235",236,"sub10",1,14,223,0,"+",0,53,21,74,74,1,1,2467,2171,2337,1978478,1980945,2
"236",237,"sub10",1,15,224,7,"+",1,48,24,72,72,1,1,2623,2187,2431,1987560,1990183,2
"237",238,"sub10",1,15,225,15,"-",1,65,29,36,36,1,1,5280,4917,5112,1994714,1999994,2
"238",239,"sub10",1,15,226,13,"-",1,52,13,39,39,1,1,4095,3802,3910,2004642,2008737,2
"239",240,"sub10",1,15,227,14,"-",1,86,18,68,68,1,1,2276,1979,2104,2013300,2015576,2
"240",241,"sub10",1,15,228,4,"+",1,39,25,64,64,1,1,4867,4514,4704,2020265,2025132,2
"241",242,"sub10",1,15,229,2,"+",0,58,21,79,79,1,1,2259,1985,2102,2029635,2031894,2
"242",243,"sub10",1,15,230,12,"-",1,74,35,39,39,1,1,2068,1762,1898,2036396,2038464,2
"243",244,"sub10",1,15,231,8,"-",0,68,12,56,56,1,1,3452,3123,3252,2042991,2046443,2
"244",245,"sub10",1,15,232,15,"-",1,65,29,36,36,1,1,4494,4198,4321,2050982,2055476,2
"245",246,"sub10",1,15,233,2,"+",0,58,21,79,79,1,1,2319,2044,2127,2060057,2062376,2
"246",247,"sub10",1,15,234,14,"-",1,86,18,68,68,1,1,1932,1554,1718,2066977,2068909,2
"247",248,"sub10",1,15,235,4,"+",1,39,25,64,64,1,1,3007,2747,2864,2073488,2076495,2
"248",249,"sub10",1,15,236,5,"+",1,54,17,71,71,1,1,3539,3209,3360,2081251,2084790,2
"249",250,"sub10",1,15,237,3,"+",0,45,34,79,79,1,1,2485,2207,2320,2089374,2091859,2
"250",251,"sub10",1,15,238,0,"+",0,53,21,74,74,1,1,2556,2215,2381,2096410,2098966,2
"251",252,"sub10",1,15,239,8,"-",0,68,12,56,56,1,1,2547,2290,2406,2103526,2106073,2
"252",253,"sub10",1,16,240,4,"+",1,39,25,64,64,1,1,2922,2682,2783,2112710,2115632,2
"253",254,"sub10",1,16,241,13,"-",1,52,13,39,39,1,1,2659,2374,2458,2120185,2122844,2
"254",255,"sub10",1,16,242,9,"-",0,86,41,45,45,1,1,1694,1443,1537,2127583,2129277,2
"255",256,"sub10",1,16,243,3,"+",0,45,34,79,79,1,1,2159,1884,1984,2133883,2136042,2
"256",257,"sub10",1,16,244,0,"+",0,53,21,74,74,1,1,2118,1790,1940,2140586,2142704,2
"257",258,"sub10",1,16,245,12,"-",1,74,35,39,39,1,1,2659,2351,2466,2147278,2149937,2
"258",259,"sub10",1,16,246,13,"-",1,52,13,39,39,1,1,2523,2224,2318,2154472,2156995,2
"259",260,"sub10",1,16,247,9,"-",0,86,41,45,45,1,1,1445,1218,1330,2161556,2163001,2
"260",261,"sub10",1,16,248,11,"-",0,49,17,32,32,1,1,3164,2927,3023,2167591,2170755,2
"261",262,"sub10",1,16,249,6,"+",1,43,19,62,62,1,1,3112,2879,2985,2175346,2178458,2
"262",263,"sub10",1,16,250,6,"+",1,43,19,62,62,1,1,3182,2943,3034,2183033,2186215,2
"263",264,"sub10",1,16,251,14,"-",1,86,18,68,68,1,1,1899,1589,1721,2190865,2192764,2
"264",265,"sub10",1,16,252,9,"-",0,86,41,45,45,1,1,1891,1664,1743,2197310,2199201,2
"265",266,"sub10",1,16,253,12,"-",1,74,35,39,39,1,1,2096,1725,1923,2203700,2205796,2
"266",267,"sub10",1,16,254,14,"-",1,86,18,68,68,1,1,2478,1573,1673,2210360,2212838,2
"267",268,"sub10",1,16,255,1,"+",0,43,14,57,57,1,1,3547,3189,3322,2217398,2220945,2
"268",269,"sub10",1,17,256,12,"-",1,74,35,39,39,1,1,2076,1693,1826,2227289,2229365,2
"269",270,"sub10",1,17,257,3,"+",0,45,34,79,79,1,1,2215,1917,2033,2233888,2236103,2
"270",271,"sub10",1,17,258,8,"-",0,68,12,56,56,1,1,2655,2385,2503,2240656,2243311,2
"271",272,"sub10",1,17,259,12,"-",1,74,35,39,39,1,1,1964,1573,1722,2247928,2249892,2
"272",273,"sub10",1,17,260,4,"+",1,39,25,64,64,1,1,2562,2221,2382,2254459,2257021,2
"273",274,"sub10",1,17,261,8,"-",0,68,12,56,56,1,1,2178,1867,1979,2261565,2263743,2
"274",275,"sub10",1,17,262,4,"+",1,39,25,64,64,1,1,2507,2198,2341,2268274,2270781,2
"275",276,"sub10",1,17,263,15,"-",1,65,29,36,36,1,1,4451,4076,4271,2275312,2279763,2
"276",277,"sub10",1,17,264,11,"-",0,49,17,32,32,1,1,3098,2826,2965,2284371,2287469,2
"277",278,"sub10",1,17,265,7,"+",1,48,24,72,72,1,1,3697,2992,3497,2291989,2295686,2
"278",279,"sub10",1,17,266,9,"-",0,86,41,45,45,1,1,1672,1374,1506,2300278,2301950,2
"279",280,"sub10",1,17,267,2,"+",0,58,21,79,79,1,1,2567,2268,2385,2306464,2309031,2
"280",281,"sub10",1,17,268,12,"-",1,74,35,39,39,1,1,2904,2465,2697,2313598,2316502,2
"281",282,"sub10",1,17,269,6,"+",1,43,19,62,62,1,1,3906,3610,3759,2321075,2324981,2
"282",283,"sub10",1,17,270,14,"-",1,86,18,68,68,1,1,1865,1475,1642,2329549,2331414,2
"283",284,"sub10",1,17,271,2,"+",0,58,21,79,79,1,1,2255,1965,2078,2335951,2338206,2
"284",285,"sub10",1,18,272,7,"+",1,48,24,72,72,1,1,3318,2792,3117,2344592,2347910,2
"285",286,"sub10",1,18,273,14,"-",1,86,18,68,68,1,1,1627,1295,1458,2352552,2354179,2
"286",287,"sub10",1,18,274,5,"+",1,54,17,71,71,1,1,3983,3560,3796,2358691,2362674,2
"287",288,"sub10",1,18,275,5,"+",1,54,17,71,71,1,1,1625,1291,1433,2367173,2368798,2
"288",289,"sub10",1,18,276,6,"+",1,43,19,62,62,1,1,4378,4122,4237,2373317,2377695,2
"289",290,"sub10",1,18,277,1,"+",0,43,14,57,57,1,1,4005,3406,3719,2382214,2386219,2
"290",291,"sub10",1,18,278,13,"-",1,52,13,39,39,1,1,2754,2371,2566,2390730,2393484,2
"291",292,"sub10",1,18,279,10,"-",0,63,12,51,51,1,1,3617,3283,3449,2398010,2401627,2
"292",293,"sub10",1,18,280,14,"-",1,86,18,68,68,1,1,1535,1255,1385,2406133,2407668,2
"293",294,"sub10",1,18,281,2,"+",0,58,21,79,79,1,1,2256,1951,2076,2412252,2414508,2
"294",295,"sub10",1,18,282,15,"-",1,65,29,36,36,1,1,5619,5324,5422,2419074,2424693,2
"295",296,"sub10",1,18,283,7,"+",1,48,24,72,72,1,1,3956,3406,3739,2429439,2433395,2
"296",297,"sub10",1,18,284,15,"-",1,65,29,36,36,1,1,2732,2441,2532,2437913,2440645,2
"297",298,"sub10",1,18,285,15,"-",1,65,29,36,36,1,1,3112,1250,2796,2445252,2448364,3
"298",299,"sub10",1,18,286,4,"+",1,39,25,64,64,1,1,2620,2335,2460,2453458,2456078,2
"299",300,"sub10",1,18,287,2,"+",0,58,21,79,79,1,1,2279,1980,2115,2460720,2462999,2
"300",301,"sub10",1,19,288,1,"+",0,43,14,57,57,1,1,2835,2465,2648,2469370,2472205,2
"301",302,"sub10",1,19,289,11,"-",0,49,17,32,32,1,1,3425,3144,3264,2476782,2480207,2
"302",303,"sub10",1,19,290,9,"-",0,86,41,45,45,1,1,1491,1207,1323,2484705,2486196,2
"303",304,"sub10",1,19,291,9,"-",0,86,41,45,45,1,1,1427,1174,1294,2490806,2492233,2
"304",305,"sub10",1,19,292,7,"+",1,48,24,72,72,1,1,3433,2892,3250,2496759,2500192,2
"305",306,"sub10",1,19,293,8,"-",0,68,12,56,56,1,1,2647,2374,2487,2504826,2507473,2
"306",307,"sub10",1,19,294,9,"-",0,86,41,45,45,1,1,1425,1169,1300,2512035,2513460,2
"307",308,"sub10",1,19,295,11,"-",0,49,17,32,32,1,1,2705,2438,2586,2518007,2520712,2
"308",309,"sub10",1,19,296,14,"-",1,86,18,68,68,1,1,1671,1394,1543,2525270,2526941,2
"309",310,"sub10",1,19,297,10,"-",0,63,12,51,51,1,1,3085,2809,2909,2531502,2534587,2
"310",311,"sub10",1,19,298,12,"-",1,74,35,39,39,1,1,1742,1384,1542,2539108,2540850,2
"311",312,"sub10",1,19,299,10,"-",0,63,12,51,51,1,1,2632,2040,2140,2545344,2547976,2
"312",313,"sub10",1,19,300,8,"-",0,68,12,56,56,1,1,2506,2244,2335,2552532,2555038,2
"313",314,"sub10",1,19,301,7,"+",1,48,24,72,72,1,1,3134,2649,2974,2559564,2562698,2
"314",315,"sub10",1,19,302,15,"-",1,65,29,36,36,1,1,3775,3438,3609,2567307,2571082,2
"315",316,"sub10",1,19,303,11,"-",0,49,17,32,32,1,1,3125,2828,2960,2575608,2578733,2
"316",317,"sub10",1,20,304,11,"-",0,49,17,32,32,1,1,4777,4546,4666,2585142,2589919,2
"317",318,"sub10",1,20,305,15,"-",1,65,29,36,36,1,1,3964,1934,3172,2594436,2598400,2
"318",319,"sub10",1,20,306,5,"+",1,54,17,71,71,1,1,4050,3186,3908,2602918,2606968,2
"319",320,"sub10",1,20,307,7,"+",1,48,24,72,72,1,1,2870,2320,2644,2611499,2614369,2
"320",321,"sub10",1,20,308,15,"-",1,65,29,36,36,1,1,4856,4539,4705,2618904,2623760,2
"321",322,"sub10",1,20,309,12,"-",1,74,35,39,39,1,1,1919,1558,1733,2628303,2630222,2
"322",323,"sub10",1,20,310,11,"-",0,49,17,32,32,1,1,3154,2898,3009,2634787,2637941,2
"323",324,"sub10",1,20,311,13,"-",1,52,13,39,39,1,1,3482,3022,3238,2642457,2645939,2
"324",325,"sub10",1,20,312,1,"+",0,43,14,57,57,1,1,3755,3340,3530,2650508,2654263,2
"325",326,"sub10",1,20,313,0,"+",0,53,21,74,74,1,1,2652,2339,2505,2658757,2661409,2
"327",328,"sub10",1,20,314,6,"+",1,43,19,62,62,2,1,3069,2780,2929,2673198,2676267,2
"328",329,"sub10",1,20,315,1,"+",0,43,14,57,57,1,1,3795,3304,3551,2680869,2684664,2
"329",330,"sub10",1,20,316,12,"-",1,74,35,39,39,1,1,1887,1537,1687,2689220,2691107,2
"330",331,"sub10",1,20,317,5,"+",1,54,17,71,71,1,1,3653,3300,3487,2695708,2699361,2
"331",332,"sub10",1,20,318,11,"-",0,49,17,32,32,1,1,2977,2681,2808,2703943,2706920,2
"332",333,"sub10",1,20,319,1,"+",0,43,14,57,57,1,1,2999,2637,2831,2711483,2714482,2
"333",334,"sub10",1,21,320,7,"+",1,48,24,72,72,1,1,2673,2185,2506,2720757,2723430,2
"334",335,"sub10",1,21,321,7,"+",1,48,24,72,72,1,1,1869,1355,1734,2728020,2729889,2
"335",336,"sub10",1,21,322,5,"+",1,54,17,71,71,1,1,2951,2498,2804,2734502,2737453,2
"336",337,"sub10",1,21,323,2,"+",0,58,21,79,79,1,1,4057,3458,3845,2742128,2746185,2
"337",338,"sub10",1,21,324,11,"-",0,49,17,32,32,1,1,2545,1984,2195,2750876,2753421,2
"338",339,"sub10",1,21,325,9,"-",0,86,41,45,45,1,1,1495,1157,1312,2757969,2759464,2
"339",340,"sub10",1,21,326,0,"+",0,53,21,74,74,1,1,2651,2256,2484,2763968,2766619,2
"340",341,"sub10",1,21,327,3,"+",0,45,34,79,79,1,1,3484,3131,3288,2771139,2774623,2
"341",342,"sub10",1,21,328,5,"+",1,54,17,71,71,1,1,3371,2965,3180,2779167,2782538,2
"342",343,"sub10",1,21,329,10,"-",0,63,12,51,51,1,1,3273,2952,3127,2787157,2790430,2
"343",344,"sub10",1,21,330,15,"-",1,65,29,36,36,1,1,3644,3333,3466,2794954,2798598,2
"344",345,"sub10",1,21,331,13,"-",1,52,13,39,39,1,1,3450,3058,3240,2803152,2806602,2
"345",346,"sub10",1,21,332,8,"-",0,68,12,56,56,1,1,3090,2817,2932,2811113,2814203,2
"346",347,"sub10",1,21,333,15,"-",1,65,29,36,36,1,1,3723,3418,3551,2818724,2822447,2
"347",348,"sub10",1,21,334,3,"+",0,45,34,79,79,1,1,2324,2057,2169,2827022,2829346,2
"349",350,"sub10",1,21,335,13,"-",1,52,13,39,39,2,1,987,650,781,2842150,2843137,2
"350",351,"sub10",1,22,336,1,"+",0,43,14,57,57,1,1,3024,2605,2791,2849761,2852785,2
"351",352,"sub10",1,22,337,1,"+",0,43,14,57,57,1,1,3195,2874,3036,2857345,2860540,2
"352",353,"sub10",1,22,338,15,"-",1,65,29,36,36,1,1,3146,2740,2930,2865077,2868223,2
"353",354,"sub10",1,22,339,9,"-",0,86,41,45,45,1,1,1621,1334,1441,2872795,2874416,2
"354",355,"sub10",1,22,340,4,"+",1,39,25,64,64,1,1,2984,2699,2841,2878925,2881909,2
"355",356,"sub10",1,22,341,3,"+",0,45,34,79,79,1,1,1912,1668,1759,2886501,2888413,2
"356",357,"sub10",1,22,342,2,"+",0,58,21,79,79,1,1,2607,2346,2475,2892951,2895558,2
"357",358,"sub10",1,22,343,15,"-",1,65,29,36,36,1,1,2131,1823,1934,2900076,2902207,2
"358",359,"sub10",1,22,344,8,"-",0,68,12,56,56,1,1,2918,2687,2791,2906464,2909382,2
"359",360,"sub10",1,22,345,5,"+",1,54,17,71,71,1,1,3265,2670,2918,2913884,2917149,2
"360",361,"sub10",1,22,346,6,"+",1,43,19,62,62,1,1,3095,2713,2937,2921703,2924798,2
"361",362,"sub10",1,22,347,6,"+",1,43,19,62,62,1,1,1969,1395,1794,2929383,2931352,2
"362",363,"sub10",1,22,348,1,"+",0,43,14,57,57,1,1,3584,3242,3426,2935970,2939554,2
"363",364,"sub10",1,22,349,9,"-",0,86,41,45,45,1,1,1482,1198,1348,2944131,2945613,2
"364",365,"sub10",1,22,350,8,"-",0,68,12,56,56,1,1,3513,2321,3272,2950114,2953627,2
"365",366,"sub10",1,22,351,7,"+",1,48,24,72,72,1,1,3737,3219,3593,2958130,2961867,2
"366",367,"sub10",1,23,352,11,"-",0,49,17,32,32,1,1,2726,2425,2559,2968302,2971028,2
"367",368,"sub10",1,23,353,5,"+",1,54,17,71,71,1,1,3764,3214,3609,2975564,2979328,2
"368",369,"sub10",1,23,354,9,"-",0,86,41,45,45,1,1,1798,1492,1621,2983864,2985662,2
"369",370,"sub10",1,23,355,10,"-",0,63,12,51,51,1,1,4997,4761,4889,2990231,2995228,2
"370",371,"sub10",1,23,356,14,"-",1,86,18,68,68,1,1,1887,1615,1763,2999736,3001623,2
"371",372,"sub10",1,23,357,12,"-",1,74,35,39,39,1,1,2501,1913,2308,3006157,3008658,2
"372",373,"sub10",1,23,358,12,"-",1,74,35,39,39,1,1,1821,1406,1682,3013234,3015055,2
"373",374,"sub10",1,23,359,3,"+",0,45,34,79,79,1,1,2049,1765,1863,3019512,3021561,2
"374",375,"sub10",1,23,360,10,"-",0,63,12,51,51,1,1,2848,2575,2691,3026054,3028902,2
"375",376,"sub10",1,23,361,6,"+",1,43,19,62,62,1,1,4467,4225,4324,3033450,3037917,2
"376",377,"sub10",1,23,362,8,"-",0,68,12,56,56,1,1,2615,2327,2451,3042484,3045099,2
"377",378,"sub10",1,23,363,1,"+",0,43,14,57,57,1,1,2508,2212,2351,3049609,3052117,2
"378",379,"sub10",1,23,364,5,"+",1,54,17,71,71,1,1,4186,3857,4084,3056642,3060828,2
"379",380,"sub10",1,23,365,3,"+",0,45,34,79,79,1,1,2121,1853,1936,3065372,3067493,2
"380",381,"sub10",1,23,366,9,"-",0,86,41,45,45,1,1,1383,1132,1239,3072018,3073401,2
"381",382,"sub10",1,23,367,9,"-",0,86,41,45,45,1,1,1208,961,1060,3078016,3079224,2
"383",384,"sub10",1,24,368,1,"+",0,43,14,57,57,2,1,1125,865,973,3092478,3093603,2
"384",385,"sub10",1,24,369,14,"-",1,86,18,68,68,1,1,2426,1982,2304,3098198,3100624,2
"385",386,"sub10",1,24,370,14,"-",1,86,18,68,68,1,1,1564,1084,1413,3105189,3106753,2
"386",387,"sub10",1,24,371,11,"-",0,49,17,32,32,1,1,2762,2404,2603,3111277,3114039,2
"387",388,"sub10",1,24,372,8,"-",0,68,12,56,56,1,1,2464,2082,2330,3118555,3121019,2
"388",389,"sub10",1,24,373,4,"+",1,39,25,64,64,1,1,2933,2530,2803,3125507,3128440,2
"389",390,"sub10",1,24,374,14,"-",1,86,18,68,68,1,1,1663,1219,1496,3133082,3134745,2
"390",391,"sub10",1,24,375,14,"-",1,86,18,68,68,1,1,1739,1263,1580,3139265,3141004,2
"391",392,"sub10",1,24,376,7,"+",1,48,24,72,72,1,1,3352,2835,3172,3145515,3148867,2
"392",393,"sub10",1,24,377,8,"-",0,68,12,56,56,1,1,2320,1941,2137,3153350,3155670,2
"393",394,"sub10",1,24,378,11,"-",0,49,17,32,32,1,1,2239,1894,2076,3160169,3162408,2
"394",395,"sub10",1,24,379,7,"+",1,48,24,72,72,1,1,3134,2629,2976,3166920,3170054,2
"395",396,"sub10",1,24,380,6,"+",1,43,19,62,62,1,1,3000,2617,2874,3174615,3177615,2
"396",397,"sub10",1,24,381,9,"-",0,86,41,45,45,1,1,1896,1534,1675,3182130,3184026,2
"397",398,"sub10",1,24,382,14,"-",1,86,18,68,68,1,1,1600,1222,1466,3188542,3190142,2
"398",399,"sub10",1,24,383,4,"+",1,39,25,64,64,1,1,3343,3009,3225,3194793,3198136,2
"399",401,"sub10",2,1,0,4,"+",1,58,16,74,74,1,1,4717,4273,4462,6628,11345,2
"400",402,"sub10",2,1,1,5,"+",1,36,17,53,53,1,1,4421,4033,4226,16307,20728,2
"401",403,"sub10",2,1,2,2,"+",0,24,15,39,39,1,1,3223,2869,3043,25272,28495,2
"402",404,"sub10",2,1,3,14,"-",1,51,16,35,35,1,1,3523,2865,3042,33029,36552,2
"403",405,"sub10",2,1,4,5,"+",1,36,17,53,53,1,1,2741,2411,2576,41141,43882,2
"404",406,"sub10",2,1,5,9,"-",0,83,51,32,32,1,1,6554,6190,6367,48473,55027,2
"405",407,"sub10",2,1,6,5,"+",1,36,17,53,53,1,1,3487,3141,3309,60139,63626,2
"406",408,"sub10",2,1,7,8,"-",0,46,14,32,32,1,1,3236,2933,3057,68155,71391,2
"408",410,"sub10",2,1,8,9,"-",0,83,51,32,32,2,1,4373,4071,4187,81809,86182,2
"409",411,"sub10",2,1,9,12,"-",1,83,25,58,58,1,1,5941,5445,5787,90873,96814,2
"410",412,"sub10",2,1,10,0,"+",0,51,23,74,74,1,1,3244,2910,3083,101517,104761,2
"411",413,"sub10",2,1,11,15,"-",1,72,23,49,49,1,1,4875,4423,4693,109285,114160,2
"412",414,"sub10",2,1,12,2,"+",0,24,15,39,39,1,1,2749,2404,2576,118705,121454,2
"413",415,"sub10",2,1,13,8,"-",0,46,14,32,32,1,1,3479,3140,3297,125939,129418,2
"414",416,"sub10",2,1,14,0,"+",0,51,23,74,74,1,1,2509,2215,2372,133903,136412,2
"415",417,"sub10",2,1,15,14,"-",1,51,16,35,35,1,1,3073,2776,2917,140905,143978,2
"416",418,"sub10",2,2,16,4,"+",1,58,16,74,74,1,1,3208,2849,3042,150245,153453,2
"417",419,"sub10",2,2,17,4,"+",1,58,16,74,74,1,1,3152,2862,3010,157993,161145,2
"418",420,"sub10",2,2,18,9,"-",0,83,51,32,32,1,1,1821,1474,1647,165710,167531,2
"419",421,"sub10",2,2,19,7,"+",1,49,23,72,72,1,1,4226,3916,4077,172046,176272,2
"420",422,"sub10",2,2,20,3,"+",0,61,17,78,78,1,1,2675,2386,2543,180777,183452,2
"421",423,"sub10",2,2,21,7,"+",1,49,23,72,72,1,1,3042,2703,2884,187973,191015,2
"422",424,"sub10",2,2,22,10,"-",0,53,21,32,32,1,1,4022,3725,3865,195515,199537,2
"423",425,"sub10",2,2,23,4,"+",1,58,16,74,74,1,1,3180,2865,3030,204071,207251,2
"424",426,"sub10",2,2,24,2,"+",0,24,15,39,39,1,1,3503,3019,3305,211742,215245,2
"425",427,"sub10",2,2,25,10,"-",0,53,21,32,32,1,1,3898,3657,3781,219786,223684,2
"426",428,"sub10",2,2,26,11,"-",0,79,36,43,43,1,1,5755,5401,5585,228213,233968,2
"427",429,"sub10",2,2,27,7,"+",1,49,23,72,72,1,1,4093,3754,3947,238509,242602,2
"428",430,"sub10",2,2,28,15,"-",1,72,23,49,49,1,1,3738,3193,3576,247144,250882,2
"429",431,"sub10",2,2,29,9,"-",0,83,51,32,32,1,1,1877,1567,1720,255374,257251,2
"430",432,"sub10",2,2,30,14,"-",1,51,16,35,35,1,1,3050,2752,2901,261751,264801,2
"431",433,"sub10",2,2,31,4,"+",1,58,16,74,74,1,1,2276,1997,2134,269297,271573,2
"432",434,"sub10",2,3,32,3,"+",0,61,17,78,78,1,1,2697,2354,2531,277584,280281,2
"433",435,"sub10",2,3,33,1,"+",0,52,13,65,65,1,1,3050,2784,2925,284765,287815,2
"434",436,"sub10",2,3,34,7,"+",1,49,23,72,72,1,1,2734,2416,2589,292335,295069,2
"435",437,"sub10",2,3,35,5,"+",1,36,17,53,53,1,1,4714,4480,4580,299593,304307,2
"436",438,"sub10",2,3,36,0,"+",0,51,23,74,74,1,1,2480,2190,2335,308768,311248,2
"437",439,"sub10",2,3,37,13,"-",1,73,15,58,58,1,1,6620,5093,6491,315810,322430,3
"438",440,"sub10",2,3,38,10,"-",0,53,21,32,32,1,1,4040,3789,3906,326939,330979,2
"439",441,"sub10",2,3,39,5,"+",1,36,17,53,53,1,1,3366,3072,3204,335479,338845,2
"440",442,"sub10",2,3,40,1,"+",0,52,13,65,65,1,1,3716,3442,3557,343373,347089,2
"441",443,"sub10",2,3,41,15,"-",1,72,23,49,49,1,1,3354,2963,3213,351605,354959,2
"442",444,"sub10",2,3,42,3,"+",0,61,17,78,78,1,1,2511,2224,2373,359516,362027,2
"443",445,"sub10",2,3,43,0,"+",0,51,23,74,74,1,1,2617,2339,2488,366538,369155,2
"444",446,"sub10",2,3,44,11,"-",0,79,36,43,43,1,1,5638,5353,5517,373699,379337,2
"446",448,"sub10",2,3,45,12,"-",1,83,25,58,58,2,1,5654,5380,5545,394277,399931,2
"447",449,"sub10",2,3,46,0,"+",0,51,23,74,74,1,1,2474,2209,2338,404431,406905,2
"448",450,"sub10",2,3,47,2,"+",0,24,15,39,39,1,1,2643,2322,2478,411398,414041,2
"449",451,"sub10",2,4,48,1,"+",0,52,13,65,65,1,1,2149,1915,2047,420071,422220,2
"450",452,"sub10",2,4,49,6,"+",1,52,19,71,71,1,1,2482,2151,2308,426716,429198,2
"451",453,"sub10",2,4,50,0,"+",0,51,23,74,74,1,1,2485,2191,2336,433731,436216,2
"452",454,"sub10",2,4,51,11,"-",0,79,36,43,43,1,1,4100,3815,3939,440709,444809,2
"453",455,"sub10",2,4,52,3,"+",0,61,17,78,78,1,1,3054,2615,2941,449359,452413,2
"454",456,"sub10",2,4,53,5,"+",1,36,17,53,53,1,1,3119,2837,2961,456913,460032,2
"455",457,"sub10",2,4,54,15,"-",1,72,23,49,49,1,1,3488,3084,3306,464582,468070,2
"456",458,"sub10",2,4,55,1,"+",0,52,13,65,65,1,1,2595,2225,2447,472668,475263,2
"457",459,"sub10",2,4,56,15,"-",1,72,23,49,49,1,1,4733,4276,4522,479781,484514,2
"458",460,"sub10",2,4,57,15,"-",1,72,23,49,49,1,1,1723,1195,1432,489034,490757,2
"460",462,"sub10",2,4,58,11,"-",0,79,36,43,43,2,1,818,314,701,506803,507621,2
"461",463,"sub10",2,4,59,12,"-",1,83,25,58,58,1,1,6182,5907,6057,512265,518447,2
"462",464,"sub10",2,4,60,10,"-",0,53,21,32,32,1,1,4555,4285,4413,523000,527555,2
"463",465,"sub10",2,4,61,12,"-",1,83,25,58,58,1,1,4256,3994,4114,532091,536347,2
"464",466,"sub10",2,4,62,1,"+",0,52,13,65,65,1,1,2052,1798,1927,540912,542964,2
"465",467,"sub10",2,4,63,14,"-",1,51,16,35,35,1,1,3281,3016,3148,547481,550762,2
"466",468,"sub10",2,5,64,0,"+",0,51,23,74,74,1,1,4173,3919,4048,556657,560830,2
"467",469,"sub10",2,5,65,12,"-",1,83,25,58,58,1,1,3595,3345,3461,565456,569051,2
"468",470,"sub10",2,5,66,8,"-",0,46,14,32,32,1,1,3744,3475,3582,573579,577323,2
"469",471,"sub10",2,5,67,1,"+",0,52,13,65,65,1,1,2210,1957,2081,581872,584082,2
"470",472,"sub10",2,5,68,10,"-",0,53,21,32,32,1,1,3553,3324,3420,588583,592136,2
"471",473,"sub10",2,5,69,7,"+",1,49,23,72,72,1,1,3558,3251,3408,596657,600215,2
"472",474,"sub10",2,5,70,11,"-",0,79,36,43,43,1,1,3793,3490,3663,604764,608557,2
"473",475,"sub10",2,5,71,15,"-",1,72,23,49,49,1,1,4073,3726,3936,613081,617154,2
"474",476,"sub10",2,5,72,0,"+",0,51,23,74,74,1,1,1955,1669,1801,621858,623813,2
"475",477,"sub10",2,5,73,9,"-",0,83,51,32,32,1,1,4428,2033,4239,628363,632791,2
"476",478,"sub10",2,5,74,7,"+",1,49,23,72,72,1,1,2637,2370,2519,637345,639982,2
"477",479,"sub10",2,5,75,5,"+",1,36,17,53,53,1,1,3455,3186,3346,644596,648051,2
"478",480,"sub10",2,5,76,1,"+",0,52,13,65,65,1,1,2272,2010,2122,652641,654913,2
"479",481,"sub10",2,5,77,11,"-",0,79,36,43,43,1,1,3950,3661,3843,659474,663424,2
"480",482,"sub10",2,5,78,2,"+",0,24,15,39,39,1,1,3191,2886,3066,667975,671166,2
"481",483,"sub10",2,5,79,5,"+",1,36,17,53,53,1,1,2279,2038,2145,675679,677958,2
"482",484,"sub10",2,6,80,15,"-",1,72,23,49,49,1,1,3037,2703,2895,684065,687102,2
"483",485,"sub10",2,6,81,2,"+",0,24,15,39,39,1,1,2361,2055,2220,691627,693988,2
"484",486,"sub10",2,6,82,1,"+",0,52,13,65,65,1,1,2487,2185,2375,698317,700804,2
"485",487,"sub10",2,6,83,3,"+",0,61,17,78,78,1,1,2920,2688,2804,705284,708204,2
"486",488,"sub10",2,6,84,11,"-",0,79,36,43,43,1,1,3784,3514,3655,712731,716515,2
"487",489,"sub10",2,6,85,6,"+",1,52,19,71,71,1,1,3204,2873,3038,721065,724269,2
"488",490,"sub10",2,6,86,13,"-",1,73,15,58,58,1,1,4090,3824,3952,728810,732900,2
"490",492,"sub10",2,6,87,14,"-",1,51,16,35,35,2,1,4551,4285,4394,746123,750674,2
"491",493,"sub10",2,6,88,14,"-",1,51,16,35,35,1,1,1682,1430,1541,755183,756865,2
"492",494,"sub10",2,6,89,1,"+",0,52,13,65,65,1,1,2649,2404,2499,761371,764020,2
"493",495,"sub10",2,6,90,11,"-",0,79,36,43,43,1,1,7175,3771,6790,768618,775793,2
"494",496,"sub10",2,6,91,9,"-",0,83,51,32,32,1,1,1946,1705,1821,780307,782253,2
"495",497,"sub10",2,6,92,3,"+",0,61,17,78,78,1,1,3232,3036,3120,786835,790067,2
"496",498,"sub10",2,6,93,14,"-",1,51,16,35,35,1,1,4194,3961,4102,794594,798788,2
"497",499,"sub10",2,6,94,6,"+",1,52,19,71,71,1,1,2211,1974,2113,803378,805589,2
"498",500,"sub10",2,6,95,7,"+",1,49,23,72,72,1,1,2673,2415,2531,810102,812775,2
"499",501,"sub10",2,7,96,0,"+",0,51,23,74,74,1,1,2782,1783,1931,818669,821451,2
"500",502,"sub10",2,7,97,11,"-",0,79,36,43,43,1,1,6462,6181,6341,825992,832454,2
"501",503,"sub10",2,7,98,10,"-",0,53,21,32,32,1,1,3350,3146,3246,837061,840411,2
"502",504,"sub10",2,7,99,5,"+",1,36,17,53,53,1,1,3311,3036,3181,845006,848317,2
"503",505,"sub10",2,7,100,8,"-",0,46,14,32,32,1,1,3085,2816,2940,852814,855899,2
"504",506,"sub10",2,7,101,14,"-",1,51,16,35,35,1,1,2774,2541,2653,860490,863264,2
"505",507,"sub10",2,7,102,14,"-",1,51,16,35,35,1,1,1453,1203,1319,867829,869282,2
"506",508,"sub10",2,7,103,10,"-",0,53,21,32,32,1,1,4228,3990,4113,873827,878055,2
"507",509,"sub10",2,7,104,3,"+",0,61,17,78,78,1,1,2579,2277,2433,882601,885180,2
"508",510,"sub10",2,7,105,9,"-",0,83,51,32,32,1,1,3335,2703,2819,889705,893040,2
"509",511,"sub10",2,7,106,14,"-",1,51,16,35,35,1,1,2279,2038,2146,897553,899832,2
"510",512,"sub10",2,7,107,8,"-",0,46,14,32,32,1,1,2600,2390,2498,904322,906922,2
"511",513,"sub10",2,7,108,3,"+",0,61,17,78,78,1,1,2316,2074,2190,911432,913748,2
"512",514,"sub10",2,7,109,4,"+",1,58,16,74,74,1,1,2445,2188,2316,918282,920727,2
"513",515,"sub10",2,7,110,1,"+",0,52,13,65,65,1,1,2118,1875,1999,925253,927371,2
"514",516,"sub10",2,7,111,4,"+",1,58,16,74,74,1,1,3241,3003,3128,931872,935113,2
"515",517,"sub10",2,8,112,8,"-",0,46,14,32,32,1,1,2113,1852,1968,941094,943207,2
"516",518,"sub10",2,8,113,11,"-",0,79,36,43,43,1,1,4812,4571,4699,947704,952516,2
"517",519,"sub10",2,8,114,15,"-",1,72,23,49,49,1,1,4182,3831,4057,957098,961280,2
"518",520,"sub10",2,8,115,8,"-",0,46,14,32,32,1,1,2369,2153,2257,965788,968157,2
"519",521,"sub10",2,8,116,15,"-",1,72,23,49,49,1,1,2752,2447,2627,972623,975375,2
"520",522,"sub10",2,8,117,13,"-",1,73,15,58,58,1,1,3517,3279,3391,979893,983410,2
"521",523,"sub10",2,8,118,14,"-",1,51,16,35,35,1,1,2665,2395,2523,988134,990799,2
"522",524,"sub10",2,8,119,13,"-",1,73,15,58,58,1,1,2904,2708,2791,995332,998236,2
"523",525,"sub10",2,8,120,12,"-",1,83,25,58,58,1,1,4572,4334,4416,1002742,1007314,2
"524",526,"sub10",2,8,121,14,"-",1,51,16,35,35,1,1,3395,3049,3238,1011790,1015185,2
"525",527,"sub10",2,8,122,1,"+",0,52,13,65,65,1,1,2206,1876,2049,1019828,1022034,2
"526",528,"sub10",2,8,123,4,"+",1,58,16,74,74,1,1,4240,4027,4110,1026579,1030819,2
"527",529,"sub10",2,8,124,0,"+",0,51,23,74,74,1,1,2271,2026,2149,1035314,1037585,2
"528",530,"sub10",2,8,125,0,"+",0,51,23,74,74,1,1,1348,1081,1204,1042090,1043438,2
"529",531,"sub10",2,8,126,4,"+",1,58,16,74,74,1,1,2787,2541,2673,1047995,1050782,2
"530",532,"sub10",2,8,127,9,"-",0,83,51,32,32,1,1,1869,1623,1732,1055284,1057153,2
"531",533,"sub10",2,9,128,0,"+",0,51,23,74,74,1,1,2093,1847,1967,1064744,1066837,2
"532",534,"sub10",2,9,129,7,"+",1,49,23,72,72,1,1,3153,2484,2955,1071380,1074533,2
"533",535,"sub10",2,9,130,3,"+",0,61,17,78,78,1,1,2503,2128,2394,1079096,1081599,2
"534",536,"sub10",2,9,131,12,"-",1,83,25,58,58,1,1,3942,3728,3829,1086109,1090051,2
"535",537,"sub10",2,9,132,11,"-",0,79,36,43,43,1,1,6714,1948,6553,1094593,1101307,4
"536",538,"sub10",2,9,133,9,"-",0,83,51,32,32,1,1,3764,3410,3652,1105832,1109596,2
"538",540,"sub10",2,9,134,15,"-",1,72,23,49,49,2,1,4581,4217,4451,1122241,1126822,2
"539",541,"sub10",2,9,135,4,"+",1,58,16,74,74,1,1,2572,2319,2451,1131338,1133910,2
"540",542,"sub10",2,9,136,12,"-",1,83,25,58,58,1,1,4591,4383,4496,1138411,1143002,2
"541",543,"sub10",2,9,137,0,"+",0,51,23,74,74,1,1,2588,2030,2187,1147627,1150215,2
"542",544,"sub10",2,9,138,8,"-",0,46,14,32,32,1,1,3189,2936,3060,1154715,1157904,2
"543",545,"sub10",2,9,139,1,"+",0,52,13,65,65,1,1,2673,2416,2544,1162429,1165102,2
"544",546,"sub10",2,9,140,6,"+",1,52,19,71,71,1,1,2588,2160,2423,1169631,1172219,2
"545",547,"sub10",2,9,141,6,"+",1,52,19,71,71,1,1,3058,2671,2908,1176713,1179771,2
"546",548,"sub10",2,9,142,5,"+",1,36,17,53,53,1,1,3735,3312,3574,1184321,1188056,2
"547",549,"sub10",2,9,143,8,"-",0,46,14,32,32,1,1,2530,2037,2186,1192571,1195101,2
"548",550,"sub10",2,10,144,2,"+",0,24,15,39,39,1,1,2880,2479,2729,1202108,1204988,2
"549",551,"sub10",2,10,145,6,"+",1,52,19,71,71,1,1,2251,1897,2102,1209504,1211755,2
"550",552,"sub10",2,10,146,10,"-",0,53,21,32,32,1,1,2819,2554,2679,1216260,1219079,2
"551",553,"sub10",2,10,147,13,"-",1,73,15,58,58,1,1,3590,3317,3441,1223629,1227219,2
"552",554,"sub10",2,10,148,13,"-",1,73,15,58,58,1,1,1590,1203,1441,1231756,1233346,2
"553",555,"sub10",2,10,149,11,"-",0,79,36,43,43,1,1,4963,4596,4851,1237861,1242824,2
"554",556,"sub10",2,10,150,0,"+",0,51,23,74,74,1,1,1935,1633,1825,1247342,1249277,2
"555",557,"sub10",2,10,151,5,"+",1,36,17,53,53,1,1,2624,2322,2510,1253782,1256406,2
"556",558,"sub10",2,10,152,15,"-",1,72,23,49,49,1,1,2916,2550,2800,1260911,1263827,2
"557",559,"sub10",2,10,153,13,"-",1,73,15,58,58,1,1,1674,1353,1566,1268329,1270003,2
"558",560,"sub10",2,10,154,1,"+",0,52,13,65,65,1,1,2348,1976,2207,1274530,1276878,2
"559",561,"sub10",2,10,155,0,"+",0,51,23,74,74,1,1,1991,1713,1863,1281375,1283366,2
"560",562,"sub10",2,10,156,4,"+",1,58,16,74,74,1,1,3244,2967,3111,1287885,1291129,2
"561",563,"sub10",2,10,157,10,"-",0,53,21,32,32,1,1,3459,3198,3343,1295725,1299184,2
"562",564,"sub10",2,10,158,3,"+",0,61,17,78,78,1,1,2145,1896,2005,1303767,1305912,2
"563",565,"sub10",2,10,159,12,"-",1,83,25,58,58,1,1,3707,3514,3626,1310447,1314154,2
"564",566,"sub10",2,11,160,0,"+",0,51,23,74,74,1,1,1906,1635,1796,1320733,1322639,2
"565",567,"sub10",2,11,161,0,"+",0,51,23,74,74,1,1,4116,3753,3934,1327149,1331265,2
"566",568,"sub10",2,11,162,2,"+",0,24,15,39,39,1,1,3265,2996,3140,1335815,1339080,2
"567",569,"sub10",2,11,163,1,"+",0,52,13,65,65,1,1,2039,1763,1922,1343582,1345621,2
"568",570,"sub10",2,11,164,6,"+",1,52,19,71,71,1,1,2225,1924,2092,1350108,1352333,2
"570",572,"sub10",2,11,165,11,"-",0,79,36,43,43,2,1,549,261,378,1368358,1368907,2
"571",573,"sub10",2,11,166,1,"+",0,52,13,65,65,1,1,1874,1624,1741,1373408,1375282,2
"572",574,"sub10",2,11,167,3,"+",0,61,17,78,78,1,1,2199,1990,2107,1379799,1381998,2
"573",575,"sub10",2,11,168,15,"-",1,72,23,49,49,1,1,3899,3596,3786,1386532,1390431,2
"574",576,"sub10",2,11,169,8,"-",0,46,14,32,32,1,1,3580,3359,3466,1395112,1398692,2
"575",577,"sub10",2,11,170,11,"-",0,79,36,43,43,1,1,4454,4185,4329,1403251,1407705,2
"576",578,"sub10",2,11,171,10,"-",0,53,21,32,32,1,1,3152,2972,3071,1412296,1415448,2
"577",579,"sub10",2,11,172,10,"-",0,53,21,32,32,1,1,1372,1121,1220,1420024,1421396,2
"578",580,"sub10",2,11,173,0,"+",0,51,23,74,74,1,1,1890,1583,1776,1425882,1427772,2
"579",581,"sub10",2,11,174,11,"-",0,79,36,43,43,1,1,4405,3401,4012,1432265,1436670,2
"580",582,"sub10",2,11,175,2,"+",0,24,15,39,39,1,1,2828,2509,2685,1441187,1444015,2
"581",583,"sub10",2,12,176,3,"+",0,61,17,78,78,1,1,1874,1661,1773,1450239,1452113,2
"582",584,"sub10",2,12,177,11,"-",0,79,36,43,43,1,1,1910,1608,1757,1456626,1458536,2
"583",585,"sub10",2,12,178,4,"+",1,58,16,74,74,1,1,6191,4141,6086,1463082,1469273,3
"584",586,"sub10",2,12,179,9,"-",0,83,51,32,32,1,1,6560,3957,6427,1473837,1480397,2
"585",587,"sub10",2,12,180,13,"-",1,73,15,58,58,1,1,2758,2537,2632,1484906,1487664,2
"586",588,"sub10",2,12,181,10,"-",0,53,21,32,32,1,1,3380,3105,3240,1492171,1495551,2
"587",589,"sub10",2,12,182,15,"-",1,72,23,49,49,1,1,4062,3755,3936,1500053,1504115,2
"588",590,"sub10",2,12,183,0,"+",0,51,23,74,74,1,1,2284,1949,2122,1508680,1510964,2
"589",591,"sub10",2,12,184,7,"+",1,49,23,72,72,1,1,3457,3077,3283,1515497,1518954,2
"590",592,"sub10",2,12,185,2,"+",0,24,15,39,39,1,1,3622,3174,3452,1523521,1527143,2
"591",593,"sub10",2,12,186,5,"+",1,36,17,53,53,1,1,3542,3269,3445,1531672,1535214,2
"592",594,"sub10",2,12,187,7,"+",1,49,23,72,72,1,1,2868,2565,2751,1539842,1542710,2
"593",595,"sub10",2,12,188,6,"+",1,52,19,71,71,1,1,2572,2278,2491,1547268,1549840,2
"594",596,"sub10",2,12,189,1,"+",0,52,13,65,65,1,1,3756,3527,3656,1554370,1558126,2
"595",597,"sub10",2,12,190,2,"+",0,24,15,39,39,1,1,2220,1913,2081,1562669,1564889,2
"596",598,"sub10",2,12,191,3,"+",0,61,17,78,78,1,1,2640,2395,2556,1569840,1572480,2
"597",599,"sub10",2,13,192,8,"-",0,46,14,32,32,1,1,2118,1861,1977,1578704,1580822,2
"598",600,"sub10",2,13,193,2,"+",0,24,15,39,39,1,1,2004,1688,1854,1585303,1587307,2
"599",601,"sub10",2,13,194,9,"-",0,83,51,32,32,1,1,2581,2352,2464,1591791,1594372,2
"600",602,"sub10",2,13,195,13,"-",1,73,15,58,58,1,1,2117,1908,1986,1598886,1601003,2
"601",603,"sub10",2,13,196,4,"+",1,58,16,74,74,1,1,3428,3211,3335,1605505,1608933,2
"602",604,"sub10",2,13,197,5,"+",1,36,17,53,53,1,1,3249,2737,3018,1613455,1616704,2
"603",605,"sub10",2,13,198,13,"-",1,73,15,58,58,1,1,2488,2282,2376,1621246,1623734,2
"604",606,"sub10",2,13,199,1,"+",0,52,13,65,65,1,1,1908,1674,1782,1628289,1630197,2
"605",607,"sub10",2,13,200,9,"-",0,83,51,32,32,1,1,1468,1240,1343,1634705,1636173,2
"606",608,"sub10",2,13,201,7,"+",1,49,23,72,72,1,1,5533,5239,5387,1640579,1646112,2
"607",609,"sub10",2,13,202,6,"+",1,52,19,71,71,1,1,3234,2972,3128,1650616,1653850,2
"608",610,"sub10",2,13,203,5,"+",1,36,17,53,53,1,1,3084,2802,2893,1658437,1661521,2
"609",611,"sub10",2,13,204,9,"-",0,83,51,32,32,1,1,1312,1103,1212,1665982,1667294,2
"610",612,"sub10",2,13,205,14,"-",1,51,16,35,35,1,1,2592,2339,2467,1671796,1674388,2
"611",613,"sub10",2,13,206,4,"+",1,58,16,74,74,1,1,3649,3380,3512,1678685,1682334,2
"612",614,"sub10",2,13,207,1,"+",0,52,13,65,65,1,1,2014,1767,1883,1686876,1688890,2
"613",615,"sub10",2,14,208,6,"+",1,52,19,71,71,1,1,2077,1729,1927,1695354,1697431,2
"614",616,"sub10",2,14,209,8,"-",0,46,14,32,32,1,1,2096,1868,1980,1701989,1704085,2
"615",617,"sub10",2,14,210,8,"-",0,46,14,32,32,1,1,1806,1588,1692,1708627,1710433,2
"616",618,"sub10",2,14,211,13,"-",1,73,15,58,58,1,1,1948,1717,1829,1714984,1716932,2
"617",619,"sub10",2,14,212,9,"-",0,83,51,32,32,1,1,1436,1231,1322,1721433,1722869,2
"618",620,"sub10",2,14,213,7,"+",1,49,23,72,72,1,1,2828,2559,2695,1727368,1730196,2
"619",621,"sub10",2,14,214,8,"-",0,46,14,32,32,1,1,1912,1698,1797,1734730,1736642,2
"620",622,"sub10",2,14,215,1,"+",0,52,13,65,65,1,1,2042,1799,1911,1741111,1743153,2
"621",623,"sub10",2,14,216,11,"-",0,79,36,43,43,1,1,3412,3103,3295,1747667,1751079,2
"622",624,"sub10",2,14,217,13,"-",1,73,15,58,58,1,1,1565,1328,1447,1755772,1757337,2
"623",625,"sub10",2,14,218,14,"-",1,51,16,35,35,1,1,2670,2412,2536,1761887,1764557,2
"624",626,"sub10",2,14,219,6,"+",1,52,19,71,71,1,1,2276,1873,2143,1769054,1771330,2
"625",627,"sub10",2,14,220,9,"-",0,83,51,32,32,1,1,1265,1048,1153,1775839,1777104,2
"626",628,"sub10",2,14,221,4,"+",1,58,16,74,74,1,1,2621,2404,2512,1781595,1784216,2
"627",629,"sub10",2,14,222,5,"+",1,36,17,53,53,1,1,2516,2315,2423,1788717,1791233,2
"628",630,"sub10",2,14,223,2,"+",0,24,15,39,39,1,1,2134,1803,1943,1795714,1797848,2
"629",631,"sub10",2,15,224,13,"-",1,73,15,58,58,1,1,1745,1507,1617,1803796,1805541,2
"630",632,"sub10",2,15,225,6,"+",1,52,19,71,71,1,1,2267,1994,2150,1810056,1812323,2
"631",633,"sub10",2,15,226,13,"-",1,73,15,58,58,1,1,1626,1394,1510,1816833,1818459,2
"632",634,"sub10",2,15,227,7,"+",1,49,23,72,72,1,1,2937,2688,2846,1822933,1825870,2
"633",635,"sub10",2,15,228,9,"-",0,83,51,32,32,1,1,1387,1102,1243,1830410,1831797,2
"634",636,"sub10",2,15,229,7,"+",1,49,23,72,72,1,1,2557,2291,2440,1836282,1838839,2
"636",638,"sub10",2,15,230,15,"-",1,72,23,49,49,2,1,1282,875,1149,1853070,1854352,2
"637",639,"sub10",2,15,231,12,"-",1,83,25,58,58,1,1,2192,1897,1967,1858866,1861058,2
"638",640,"sub10",2,15,232,6,"+",1,52,19,71,71,1,1,2905,2647,2820,1865580,1868485,2
"639",641,"sub10",2,15,233,7,"+",1,49,23,72,72,1,1,3606,3344,3517,1872987,1876593,2
"640",642,"sub10",2,15,234,10,"-",0,53,21,32,32,1,1,3097,2887,2998,1881095,1884192,2
"641",643,"sub10",2,15,235,7,"+",1,49,23,72,72,1,1,2434,2152,2305,1888674,1891108,2
"642",644,"sub10",2,15,236,2,"+",0,24,15,39,39,1,1,1654,1404,1521,1895586,1897240,2
"643",645,"sub10",2,15,237,15,"-",1,72,23,49,49,1,1,3672,3337,3562,1901770,1905442,2
"644",646,"sub10",2,15,238,1,"+",0,52,13,65,65,1,1,2251,2038,2133,1909944,1912195,2
"645",647,"sub10",2,15,239,15,"-",1,72,23,49,49,1,1,2376,2079,2260,1916677,1919053,2
"646",648,"sub10",2,16,240,0,"+",0,51,23,74,74,1,1,1861,1604,1752,1924922,1926783,2
"647",649,"sub10",2,16,241,6,"+",1,52,19,71,71,1,1,1930,1689,1849,1931298,1933228,2
"648",650,"sub10",2,16,242,14,"-",1,51,16,35,35,1,1,2578,2361,2462,1937732,1940310,2
"649",651,"sub10",2,16,243,8,"-",0,46,14,32,32,1,1,2336,2144,2253,1944841,1947177,2
"650",652,"sub10",2,16,244,10,"-",0,53,21,32,32,1,1,2893,2700,2787,1951685,1954578,2
"651",653,"sub10",2,16,245,5,"+",1,36,17,53,53,1,1,3946,3639,3816,1959524,1963470,2
"652",654,"sub10",2,16,246,15,"-",1,72,23,49,49,1,1,2702,2396,2557,1968166,1970868,2
"653",655,"sub10",2,16,247,15,"-",1,72,23,49,49,1,1,1470,1138,1273,1975394,1976864,2
"654",656,"sub10",2,16,248,8,"-",0,46,14,32,32,1,1,2089,1867,1989,1981373,1983462,2
"655",657,"sub10",2,16,249,12,"-",1,83,25,58,58,1,1,1748,1535,1635,1988013,1989761,2
"656",658,"sub10",2,16,250,1,"+",0,52,13,65,65,1,1,1760,1588,1680,1994295,1996055,2
"657",659,"sub10",2,16,251,10,"-",0,53,21,32,32,1,1,2202,2022,2122,2000563,2002765,2
"658",660,"sub10",2,16,252,13,"-",1,73,15,58,58,1,1,4224,4051,4146,2007248,2011472,2
"659",661,"sub10",2,16,253,11,"-",0,79,36,43,43,1,1,3128,2862,3036,2016024,2019152,2
"660",662,"sub10",2,16,254,14,"-",1,51,16,35,35,1,1,2408,2234,2341,2023665,2026073,2
"661",663,"sub10",2,16,255,5,"+",1,36,17,53,53,1,1,4171,3456,4062,2030617,2034788,2
"662",664,"sub10",2,17,256,10,"-",0,53,21,32,32,1,1,2761,2616,2743,2040582,2043343,2
"663",665,"sub10",2,17,257,9,"-",0,83,51,32,32,1,1,2172,1958,2057,2047839,2050011,2
"664",666,"sub10",2,17,258,12,"-",1,83,25,58,58,1,1,1824,1632,1744,2054529,2056353,2
"665",667,"sub10",2,17,259,12,"-",1,83,25,58,58,1,1,1454,1244,1338,2060868,2062322,2
"666",668,"sub10",2,17,260,4,"+",1,58,16,74,74,1,1,3683,3488,3595,2066823,2070506,2
"667",669,"sub10",2,17,261,1,"+",0,52,13,65,65,1,1,2000,1811,1903,2075026,2077026,2
"668",670,"sub10",2,17,262,13,"-",1,73,15,58,58,1,1,1646,1458,1550,2081558,2083204,2
"669",671,"sub10",2,17,263,9,"-",0,83,51,32,32,1,1,2190,1990,2072,2087707,2089897,2
"670",672,"sub10",2,17,264,12,"-",1,83,25,58,58,1,1,1699,1503,1597,2094411,2096110,2
"671",673,"sub10",2,17,265,15,"-",1,72,23,49,49,1,1,4126,3876,4025,2100594,2104720,2
"672",674,"sub10",2,17,266,2,"+",0,24,15,39,39,1,1,3080,2551,2931,2109184,2112264,2
"673",675,"sub10",2,17,267,15,"-",1,72,23,49,49,1,1,3174,2900,3053,2116793,2119967,2
"674",676,"sub10",2,17,268,8,"-",0,46,14,32,32,1,1,2320,2107,2207,2124517,2126837,2
"675",677,"sub10",2,17,269,10,"-",0,53,21,32,32,1,1,2747,2509,2612,2131563,2134310,2
"676",678,"sub10",2,17,270,10,"-",0,53,21,32,32,1,1,1463,1235,1333,2138987,2140450,2
"677",679,"sub10",2,17,271,5,"+",1,36,17,53,53,1,1,2698,2478,2610,2145033,2147731,2
"678",680,"sub10",2,18,272,11,"-",0,79,36,43,43,1,1,2670,2380,2537,2153551,2156221,2
"679",681,"sub10",2,18,273,8,"-",0,46,14,32,32,1,1,2568,2176,2466,2160816,2163384,2
"680",682,"sub10",2,18,274,2,"+",0,24,15,39,39,1,1,1700,1454,1570,2167889,2169589,2
"681",683,"sub10",2,18,275,12,"-",1,83,25,58,58,1,1,1628,1422,1529,2174123,2175751,2
"682",684,"sub10",2,18,276,2,"+",0,24,15,39,39,1,1,1646,1373,1510,2180431,2182077,2
"683",685,"sub10",2,18,277,8,"-",0,46,14,32,32,1,1,2009,1787,1882,2186758,2188767,2
"684",686,"sub10",2,18,278,2,"+",0,24,15,39,39,1,1,1708,1445,1574,2193274,2194982,2
"685",687,"sub10",2,18,279,11,"-",0,79,36,43,43,1,1,2113,1848,2000,2199508,2201621,2
"686",688,"sub10",2,18,280,4,"+",1,58,16,74,74,1,1,2176,1958,2071,2206211,2208387,2
"687",689,"sub10",2,18,281,6,"+",1,52,19,71,71,1,1,2258,1964,2126,2212901,2215159,2
"688",690,"sub10",2,18,282,10,"-",0,53,21,32,32,1,1,3273,3089,3188,2219691,2222964,2
"689",691,"sub10",2,18,283,6,"+",1,52,19,71,71,1,1,2218,1965,2114,2227443,2229661,2
"690",692,"sub10",2,18,284,4,"+",1,58,16,74,74,1,1,2810,2614,2730,2234177,2236987,2
"691",693,"sub10",2,18,285,12,"-",1,83,25,58,58,1,1,1371,1134,1258,2241515,2242886,2
"692",694,"sub10",2,18,286,14,"-",1,51,16,35,35,1,1,2576,2095,2451,2247404,2249980,2
"693",695,"sub10",2,18,287,1,"+",0,52,13,65,65,1,1,2210,1983,2114,2254465,2256675,2
"694",696,"sub10",2,19,288,5,"+",1,36,17,53,53,1,1,3204,2989,3104,2263957,2267161,2
"695",697,"sub10",2,19,289,6,"+",1,52,19,71,71,1,1,1915,1657,1821,2271726,2273641,2
"696",698,"sub10",2,19,290,5,"+",1,36,17,53,53,1,1,1975,1766,1874,2278354,2280329,2
"697",699,"sub10",2,19,291,0,"+",0,51,23,74,74,1,1,1789,1503,1611,2284847,2286636,2
"698",700,"sub10",2,19,292,5,"+",1,36,17,53,53,1,1,3490,3293,3375,2291174,2294664,2
"699",701,"sub10",2,19,293,0,"+",0,51,23,74,74,1,1,2500,2275,2374,2299206,2301706,2
"700",702,"sub10",2,19,294,13,"-",1,73,15,58,58,1,1,2410,2136,2218,2306467,2308877,2
"701",703,"sub10",2,19,295,14,"-",1,51,16,35,35,1,1,2612,2335,2467,2313404,2316016,2
"702",704,"sub10",2,19,296,7,"+",1,49,23,72,72,1,1,2751,2445,2643,2320493,2323244,2
"703",705,"sub10",2,19,297,0,"+",0,51,23,74,74,1,1,2484,2182,2371,2327716,2330200,2
"704",706,"sub10",2,19,298,9,"-",0,83,51,32,32,1,1,1513,1268,1388,2334679,2336192,2
"705",707,"sub10",2,19,299,13,"-",1,73,15,58,58,1,1,1533,1292,1407,2340751,2342284,2
"706",708,"sub10",2,19,300,3,"+",0,61,17,78,78,1,1,2551,2233,2459,2346798,2349349,2
"707",709,"sub10",2,19,301,5,"+",1,36,17,53,53,1,1,2118,1921,2030,2353827,2355945,2
"708",710,"sub10",2,19,302,12,"-",1,83,25,58,58,1,1,1595,1284,1449,2360428,2362023,2
"709",711,"sub10",2,19,303,8,"-",0,46,14,32,32,1,1,2350,2124,2215,2366524,2368874,2
"710",712,"sub10",2,20,304,11,"-",0,79,36,43,43,1,1,2251,1836,2139,2375513,2377764,2
"711",713,"sub10",2,20,305,2,"+",0,24,15,39,39,1,1,1874,1568,1709,2382258,2384132,2
"712",714,"sub10",2,20,306,4,"+",1,58,16,74,74,1,1,3240,3016,3141,2388611,2391851,2
"713",715,"sub10",2,20,307,11,"-",0,79,36,43,43,1,1,2003,1722,1874,2396412,2398415,2
"714",716,"sub10",2,20,308,6,"+",1,52,19,71,71,1,1,2135,1865,2042,2403092,2405227,2
"715",717,"sub10",2,20,309,3,"+",0,61,17,78,78,1,1,2158,1938,2062,2409737,2411895,2
"716",718,"sub10",2,20,310,3,"+",0,61,17,78,78,1,1,1881,1649,1773,2416488,2418369,2
"717",719,"sub10",2,20,311,2,"+",0,24,15,39,39,1,1,1935,1645,1786,2422905,2424840,2
"718",720,"sub10",2,20,312,5,"+",1,36,17,53,53,1,1,2106,1804,1915,2429350,2431456,2
"719",721,"sub10",2,20,313,10,"-",0,53,21,32,32,1,1,2709,2464,2584,2435958,2438667,2
"720",722,"sub10",2,20,314,14,"-",1,51,16,35,35,1,1,2182,1982,2094,2443324,2445506,2
"721",723,"sub10",2,20,315,7,"+",1,49,23,72,72,1,1,3477,3203,3353,2450001,2453478,2
"722",724,"sub10",2,20,316,13,"-",1,73,15,58,58,1,1,1408,1146,1291,2457956,2459364,2
"723",725,"sub10",2,20,317,10,"-",0,53,21,32,32,1,1,2299,2074,2207,2463899,2466198,2
"724",726,"sub10",2,20,318,12,"-",1,83,25,58,58,1,1,1408,1147,1279,2470712,2472120,2
"725",727,"sub10",2,20,319,7,"+",1,49,23,72,72,1,1,2519,2218,2383,2476638,2479157,2
"726",728,"sub10",2,21,320,3,"+",0,61,17,78,78,1,1,2174,1863,2046,2485066,2487240,2
"727",729,"sub10",2,21,321,4,"+",1,58,16,74,74,1,1,2297,1978,2163,2491762,2494059,2
"728",730,"sub10",2,21,322,14,"-",1,51,16,35,35,1,1,2417,2126,2292,2498652,2501069,2
"729",731,"sub10",2,21,323,1,"+",0,52,13,65,65,1,1,2273,1998,2131,2505586,2507859,2
"730",732,"sub10",2,21,324,3,"+",0,61,17,78,78,1,1,2080,1790,1939,2512377,2514457,2
"731",733,"sub10",2,21,325,3,"+",0,61,17,78,78,1,1,1687,1434,1577,2518794,2520481,2
"732",734,"sub10",2,21,326,15,"-",1,72,23,49,49,1,1,3164,2744,2909,2524958,2528122,2
"733",735,"sub10",2,21,327,13,"-",1,73,15,58,58,1,1,1387,1154,1286,2532669,2534056,2
"734",736,"sub10",2,21,328,0,"+",0,51,23,74,74,1,1,2556,2039,2439,2538657,2541213,2
"735",737,"sub10",2,21,329,7,"+",1,49,23,72,72,1,1,2633,2339,2561,2545743,2548376,2
"736",738,"sub10",2,21,330,13,"-",1,73,15,58,58,1,1,3128,2951,3057,2552932,2556060,2
"737",739,"sub10",2,21,331,12,"-",1,83,25,58,58,1,1,1676,1467,1583,2560574,2562250,2
"738",740,"sub10",2,21,332,10,"-",0,53,21,32,32,1,1,4853,4619,4740,2566801,2571654,2
"739",741,"sub10",2,21,333,4,"+",1,58,16,74,74,1,1,2500,2320,2453,2576154,2578654,2
"740",742,"sub10",2,21,334,14,"-",1,51,16,35,35,1,1,2150,1974,2086,2583169,2585319,2
"741",743,"sub10",2,21,335,12,"-",1,83,25,58,58,1,1,1611,1378,1506,2589829,2591440,2
"742",744,"sub10",2,22,336,3,"+",0,61,17,78,78,1,1,2315,2102,2227,2597395,2599710,2
"743",745,"sub10",2,22,337,10,"-",0,53,21,32,32,1,1,3332,3106,3235,2603973,2607305,2
"744",746,"sub10",2,22,338,14,"-",1,51,16,35,35,1,1,5431,5234,5343,2611566,2616997,2
"745",747,"sub10",2,22,339,12,"-",1,83,25,58,58,1,1,1732,1539,1635,2621258,2622990,2
"746",748,"sub10",2,22,340,8,"-",0,46,14,32,32,1,1,2417,2216,2316,2627246,2629663,2
"747",749,"sub10",2,22,341,6,"+",1,52,19,71,71,1,1,7410,7153,7297,2633916,2641326,2
"748",750,"sub10",2,22,342,8,"-",0,46,14,32,32,1,1,2012,1824,1916,2645869,2647881,2
"749",751,"sub10",2,22,343,9,"-",0,83,51,32,32,1,1,1662,1510,1614,2652442,2654104,2
"750",752,"sub10",2,22,344,4,"+",1,58,16,74,74,1,1,3486,3200,3376,2658664,2662150,2
"751",753,"sub10",2,22,345,2,"+",0,24,15,39,39,1,1,1725,1504,1628,2666716,2668441,2
"752",754,"sub10",2,22,346,14,"-",1,51,16,35,35,1,1,2689,2477,2588,2672927,2675616,2
"753",755,"sub10",2,22,347,2,"+",0,24,15,39,39,1,1,1704,1276,1579,2680159,2681863,2
"754",756,"sub10",2,22,348,3,"+",0,61,17,78,78,1,1,2263,2071,2180,2686377,2688640,2
"755",757,"sub10",2,22,349,13,"-",1,73,15,58,58,1,1,1680,1459,1598,2693185,2694865,2
"756",758,"sub10",2,22,350,13,"-",1,73,15,58,58,1,1,1382,1124,1284,2699344,2700726,2
"757",759,"sub10",2,22,351,9,"-",0,83,51,32,32,1,1,2111,1885,1977,2704987,2707098,2
"758",760,"sub10",2,23,352,6,"+",1,52,19,71,71,1,1,2576,2306,2479,2712864,2715440,2
"759",761,"sub10",2,23,353,15,"-",1,72,23,49,49,1,1,4378,4044,4272,2719938,2724316,2
"760",762,"sub10",2,23,354,4,"+",1,58,16,74,74,1,1,2478,2184,2344,2728823,2731301,2
"761",763,"sub10",2,23,355,12,"-",1,83,25,58,58,1,1,1657,1417,1562,2735796,2737453,2
"762",764,"sub10",2,23,356,7,"+",1,49,23,72,72,1,1,2458,2160,2357,2741942,2744400,2
"763",765,"sub10",2,23,357,10,"-",0,53,21,32,32,1,1,3112,2906,3002,2748878,2751990,2
"764",766,"sub10",2,23,358,4,"+",1,58,16,74,74,1,1,2831,2594,2718,2756488,2759319,2
"765",767,"sub10",2,23,359,11,"-",0,79,36,43,43,1,1,2518,2241,2418,2763806,2766324,2
"766",768,"sub10",2,23,360,7,"+",1,49,23,72,72,1,1,2361,2046,2276,2770909,2773270,2
"767",769,"sub10",2,23,361,6,"+",1,52,19,71,71,1,1,2025,1750,1891,2777751,2779776,2
"768",770,"sub10",2,23,362,3,"+",0,61,17,78,78,1,1,2382,2145,2272,2784261,2786643,2
"769",771,"sub10",2,23,363,5,"+",1,36,17,53,53,1,1,2872,2676,2767,2790963,2793835,2
"770",772,"sub10",2,23,364,11,"-",0,79,36,43,43,1,1,2020,1786,1927,2798329,2800349,2
"771",773,"sub10",2,23,365,8,"-",0,46,14,32,32,1,1,2161,1929,2073,2804847,2807008,2
"772",774,"sub10",2,23,366,9,"-",0,83,51,32,32,1,1,2185,1990,2085,2811512,2813697,2
"773",775,"sub10",2,23,367,6,"+",1,52,19,71,71,1,1,2755,2412,2637,2818312,2821067,2
"774",776,"sub10",2,24,368,3,"+",0,61,17,78,78,1,1,2196,1958,2083,2826824,2829020,2
"775",777,"sub10",2,24,369,13,"-",1,73,15,58,58,1,1,3472,3284,3400,2833518,2836990,2
"776",778,"sub10",2,24,370,6,"+",1,52,19,71,71,1,1,2804,2578,2718,2841454,2844258,2
"777",779,"sub10",2,24,371,3,"+",0,61,17,78,78,1,1,2069,1836,1947,2848755,2850824,2
"778",780,"sub10",2,24,372,15,"-",1,72,23,49,49,1,1,2890,2631,2780,2855294,2858184,2
"779",781,"sub10",2,24,373,8,"-",0,46,14,32,32,1,1,2030,1841,1945,2862444,2864474,2
"780",782,"sub10",2,24,374,12,"-",1,83,25,58,58,1,1,2016,1796,1924,2868976,2870992,2
"781",783,"sub10",2,24,375,9,"-",0,83,51,32,32,1,1,1429,1221,1329,2875245,2876674,2
"782",784,"sub10",2,24,376,7,"+",1,49,23,72,72,1,1,2297,1813,2189,2881164,2883461,2
"783",785,"sub10",2,24,377,9,"-",0,83,51,32,32,1,1,1329,1085,1197,2887951,2889280,2
"784",786,"sub10",2,24,378,14,"-",1,51,16,35,35,1,1,3219,2991,3107,2893661,2896880,2
"785",787,"sub10",2,24,379,2,"+",0,24,15,39,39,1,1,1579,1325,1442,2901366,2902945,2
"786",788,"sub10",2,24,380,7,"+",1,49,23,72,72,1,1,1908,1670,1823,2907198,2909106,2
"787",789,"sub10",2,24,381,2,"+",0,24,15,39,39,1,1,1482,1224,1374,2913363,2914845,2
"788",790,"sub10",2,24,382,6,"+",1,52,19,71,71,1,1,2482,2231,2404,2919106,2921588,2
"789",791,"sub10",2,24,383,12,"-",1,83,25,58,58,1,1,1666,1444,1572,2925844,2927510,2
"790",793,"sub10",3,1,0,1,"+",0,42,34,76,76,1,1,3088,2722,2911,9934,13022,2
"792",795,"sub10",3,1,1,13,"-",1,64,18,46,46,2,1,747,355,542,26930,27677,2
"793",796,"sub10",3,1,2,15,"-",1,81,13,68,68,1,1,3220,2889,3050,32272,35492,2
"794",797,"sub10",3,1,3,10,"-",0,68,23,45,45,1,1,3513,3241,3389,40002,43515,2
"795",798,"sub10",3,1,4,7,"+",1,29,14,43,43,1,1,2613,2327,2467,48054,50667,2
"796",799,"sub10",3,1,5,7,"+",1,29,14,43,43,1,1,2445,2164,2324,55274,57719,2
"797",800,"sub10",3,1,6,13,"-",1,64,18,46,46,1,1,2559,2261,2429,62242,64801,2
"799",802,"sub10",3,1,7,14,"-",1,71,24,47,47,2,1,4036,3698,3874,78389,82425,2
"800",803,"sub10",3,1,8,1,"+",0,42,34,76,76,1,1,3016,1990,2490,87093,90109,2
"801",804,"sub10",3,1,9,12,"-",1,51,19,32,32,1,1,3981,3711,3843,94611,98592,2
"802",805,"sub10",3,1,10,9,"-",0,78,31,47,47,1,1,3794,3460,3632,103146,106940,2
"803",806,"sub10",3,1,11,7,"+",1,29,14,43,43,1,1,2288,2018,2191,111499,113787,2
"804",807,"sub10",3,1,12,2,"+",0,62,16,78,78,1,1,3101,2847,2972,118338,121439,2
"805",808,"sub10",3,1,13,5,"+",1,48,27,75,75,1,1,4880,4684,4796,125969,130849,2
"806",809,"sub10",3,1,14,8,"-",0,47,13,34,34,1,1,5584,5283,5500,135357,140941,2
"808",811,"sub10",3,1,15,14,"-",1,71,24,47,47,2,1,1890,1641,1764,154879,156769,2
"809",812,"sub10",3,2,16,1,"+",0,42,34,76,76,1,1,2170,1848,2045,163055,165225,2
"810",813,"sub10",3,2,17,14,"-",1,71,24,47,47,1,1,2442,2226,2350,169727,172169,2
"811",814,"sub10",3,2,18,5,"+",1,48,27,75,75,1,1,6557,6305,6472,176773,183330,2
"812",815,"sub10",3,2,19,15,"-",1,81,13,68,68,1,1,3552,3011,3192,187901,191453,2
"814",817,"sub10",3,2,20,8,"-",0,47,13,34,34,2,1,1034,771,916,203385,204419,2
"815",818,"sub10",3,2,21,5,"+",1,48,27,75,75,1,1,5884,4368,4657,208955,214839,2
"816",819,"sub10",3,2,22,4,"+",1,57,18,75,75,1,1,5647,2934,5530,219341,224988,4
"817",820,"sub10",3,2,23,15,"-",1,81,13,68,68,1,1,4126,2569,2802,229507,233633,2
"818",821,"sub10",3,2,24,7,"+",1,29,14,43,43,1,1,2822,2524,2697,238176,240998,2
"819",822,"sub10",3,2,25,8,"-",0,47,13,34,34,1,1,3422,3161,3317,245524,248946,2
"820",823,"sub10",3,2,26,11,"-",0,86,25,61,61,1,1,4205,3777,4072,253472,257677,2
"821",824,"sub10",3,2,27,14,"-",1,71,24,47,47,1,1,4443,4084,4338,262191,266634,2
"822",825,"sub10",3,2,28,12,"-",1,51,19,32,32,1,1,3373,3096,3248,271157,274530,2
"823",826,"sub10",3,2,29,1,"+",0,42,34,76,76,1,1,2474,2091,2377,279033,281507,2
"824",827,"sub10",3,2,30,15,"-",1,81,13,68,68,1,1,2620,2375,2515,286001,288621,2
"825",828,"sub10",3,2,31,5,"+",1,48,27,75,75,1,1,4380,4172,4301,292882,297262,2
"826",829,"sub10",3,3,32,15,"-",1,81,13,68,68,1,1,2500,2242,2366,303219,305719,2
"827",830,"sub10",3,3,33,10,"-",0,68,23,45,45,1,1,5299,5080,5191,310259,315558,2
"828",831,"sub10",3,3,34,12,"-",1,51,19,32,32,1,1,2244,1945,2110,320167,322411,2
"829",832,"sub10",3,3,35,4,"+",1,57,18,75,75,1,1,2459,2233,2345,326994,329453,2
"830",833,"sub10",3,3,36,13,"-",1,64,18,46,46,1,1,3374,3160,3276,334037,337411,2
"831",834,"sub10",3,3,37,0,"+",0,52,24,76,76,1,1,2485,2106,2365,341913,344398,2
"832",835,"sub10",3,3,38,14,"-",1,71,24,47,47,1,1,4081,3775,3956,348947,353028,2
"833",836,"sub10",3,3,39,1,"+",0,42,34,76,76,1,1,2268,1970,2147,357595,359863,2
"834",837,"sub10",3,3,40,2,"+",0,62,16,78,78,1,1,2344,2090,2202,364375,366719,2
"835",838,"sub10",3,3,41,3,"+",0,48,21,69,69,1,1,4264,3967,4139,371205,375469,2
"836",839,"sub10",3,3,42,14,"-",1,71,24,47,47,1,1,3091,2834,2941,379996,383087,2
"837",840,"sub10",3,3,43,7,"+",1,29,14,43,43,1,1,2924,2615,2828,387637,390561,2
"838",841,"sub10",3,3,44,4,"+",1,57,18,75,75,1,1,2710,2496,2613,395174,397884,2
"839",842,"sub10",3,3,45,7,"+",1,29,14,43,43,1,1,1952,1691,1844,402357,404309,2
"840",843,"sub10",3,3,46,7,"+",1,29,14,43,43,1,1,2139,1893,2021,408828,410967,2
"841",844,"sub10",3,3,47,2,"+",0,62,16,78,78,1,1,2125,1938,2041,415510,417635,2
"842",845,"sub10",3,4,48,15,"-",1,81,13,68,68,1,1,2765,2512,2640,425293,428058,2
"843",846,"sub10",3,4,49,4,"+",1,57,18,75,75,1,1,2365,2169,2265,432609,434974,2
"844",847,"sub10",3,4,50,4,"+",1,57,18,75,75,1,1,1486,1257,1371,439494,440980,2
"845",848,"sub10",3,4,51,3,"+",0,48,21,69,69,1,1,2624,2390,2506,445504,448128,2
"846",849,"sub10",3,4,52,0,"+",0,52,24,76,76,1,1,2490,2100,2393,452655,455145,2
"847",850,"sub10",3,4,53,9,"-",0,78,31,47,47,1,1,4650,4344,4521,459680,464330,2
"848",851,"sub10",3,4,54,6,"+",1,43,29,72,72,1,1,2656,2071,2316,469384,472040,2
"849",852,"sub10",3,4,55,0,"+",0,52,24,76,76,1,1,2243,2001,2129,476552,478795,2
"850",853,"sub10",3,4,56,12,"-",1,51,19,32,32,1,1,2506,2298,2397,483338,485844,2
"851",854,"sub10",3,4,57,13,"-",1,64,18,46,46,1,1,2646,2424,2548,490387,493033,2
"852",855,"sub10",3,4,58,5,"+",1,48,27,75,75,1,1,2507,2335,2426,497544,500051,2
"853",856,"sub10",3,4,59,2,"+",0,62,16,78,78,1,1,2211,2012,2095,504565,506776,2
"854",857,"sub10",3,4,60,8,"-",0,47,13,34,34,1,1,3640,3367,3516,511236,514876,2
"855",858,"sub10",3,4,61,6,"+",1,43,29,72,72,1,1,2888,2667,2807,519367,522255,2
"856",859,"sub10",3,4,62,10,"-",0,68,23,45,45,1,1,4172,3680,3780,526761,530933,2
"857",860,"sub10",3,4,63,8,"-",0,47,13,34,34,1,1,3551,3282,3430,535668,539219,2
"858",861,"sub10",3,5,64,6,"+",1,43,29,72,72,1,1,2478,2164,2362,545167,547645,2
"859",862,"sub10",3,5,65,1,"+",0,42,34,76,76,1,1,2113,1876,2024,552278,554391,2
"860",863,"sub10",3,5,66,11,"-",0,86,25,61,61,1,1,5177,4782,5043,558935,564112,2
"861",864,"sub10",3,5,67,0,"+",0,52,24,76,76,1,1,2247,1946,2134,568797,571044,2
"862",865,"sub10",3,5,68,15,"-",1,81,13,68,68,1,1,3722,3376,3590,575640,579362,2
"863",866,"sub10",3,5,69,12,"-",1,51,19,32,32,1,1,2524,2222,2386,583898,586422,2
"864",867,"sub10",3,5,70,13,"-",1,64,18,46,46,1,1,2924,2621,2791,590913,593837,2
"865",868,"sub10",3,5,71,8,"-",0,47,13,34,34,1,1,3180,2808,3062,598413,601593,2
"866",869,"sub10",3,5,72,9,"-",0,78,31,47,47,1,1,4725,4474,4618,606120,610845,2
"867",870,"sub10",3,5,73,2,"+",0,62,16,78,78,1,1,2415,2173,2285,615379,617794,2
"868",871,"sub10",3,5,74,3,"+",0,48,21,69,69,1,1,2937,2671,2815,622353,625290,2
"869",872,"sub10",3,5,75,1,"+",0,42,34,76,76,1,1,2818,2594,2710,629914,632732,2
"870",873,"sub10",3,5,76,4,"+",1,57,18,75,75,1,1,2318,2084,2184,637312,639630,2
"871",874,"sub10",3,5,77,10,"-",0,68,23,45,45,1,1,4849,4664,4755,644181,649030,2
"872",875,"sub10",3,5,78,12,"-",1,51,19,32,32,1,1,2665,2457,2580,653539,656204,2
"873",876,"sub10",3,5,79,13,"-",1,64,18,46,46,1,1,2585,2327,2466,660712,663297,2
"874",877,"sub10",3,6,80,10,"-",0,68,23,45,45,1,1,3787,3563,3678,669884,673671,2
"875",878,"sub10",3,6,81,6,"+",1,43,29,72,72,1,1,4022,3725,3917,678227,682249,2
"876",879,"sub10",3,6,82,9,"-",0,78,31,47,47,1,1,4068,3851,3982,686764,690832,2
"877",880,"sub10",3,6,83,2,"+",0,62,16,78,78,1,1,2038,1809,1921,695365,697403,2
"878",881,"sub10",3,6,84,2,"+",0,62,16,78,78,1,1,1787,1548,1661,701926,703713,2
"879",882,"sub10",3,6,85,8,"-",0,47,13,34,34,1,1,3710,3363,3560,708204,711914,2
"880",883,"sub10",3,6,86,9,"-",0,78,31,47,47,1,1,4632,4294,4472,716467,721099,2
"881",884,"sub10",3,6,87,0,"+",0,52,24,76,76,1,1,5282,2659,5124,725652,730934,2
"882",885,"sub10",3,6,88,0,"+",0,52,24,76,76,1,1,1981,1703,1830,735433,737414,2
"883",886,"sub10",3,6,89,0,"+",0,52,24,76,76,1,1,1640,1297,1431,741909,743549,2
"884",887,"sub10",3,6,90,2,"+",0,62,16,78,78,1,1,2057,1772,1895,748085,750142,2
"885",888,"sub10",3,6,91,2,"+",0,62,16,78,78,1,1,1758,1500,1608,754653,756411,2
"886",889,"sub10",3,6,92,11,"-",0,86,25,61,61,1,1,3958,3462,3743,760963,764921,2
"887",890,"sub10",3,6,93,12,"-",1,51,19,32,32,1,1,2397,2115,2228,769570,771967,2
"888",891,"sub10",3,6,94,5,"+",1,48,27,75,75,1,1,2325,2088,2204,776993,779318,2
"889",892,"sub10",3,6,95,3,"+",0,48,21,69,69,1,1,4470,3385,4289,783875,788345,2
"890",893,"sub10",3,7,96,9,"-",0,78,31,47,47,1,1,4396,4049,4213,794355,798751,2
"891",894,"sub10",3,7,97,5,"+",1,48,27,75,75,1,1,2049,1800,1940,803242,805291,2
"893",896,"sub10",3,7,98,14,"-",1,71,24,47,47,2,1,788,555,678,820408,821196,2
"894",897,"sub10",3,7,99,10,"-",0,68,23,45,45,1,1,3966,3753,3835,825761,829727,2
"895",898,"sub10",3,7,100,11,"-",0,86,25,61,61,1,1,4720,4340,4590,834316,839036,2
"896",899,"sub10",3,7,101,4,"+",1,57,18,75,75,1,1,2349,1671,1784,843514,845863,2
"897",900,"sub10",3,7,102,13,"-",1,64,18,46,46,1,1,2610,2312,2445,850336,852946,2
"898",901,"sub10",3,7,103,15,"-",1,81,13,68,68,1,1,4192,3263,3638,857450,861642,2
"899",902,"sub10",3,7,104,9,"-",0,78,31,47,47,1,1,3209,2926,3009,866170,869379,2
"900",903,"sub10",3,7,105,14,"-",1,71,24,47,47,1,1,3671,3499,3585,873930,877601,2
"901",904,"sub10",3,7,106,5,"+",1,48,27,75,75,1,1,2594,2336,2432,882154,884748,2
"902",905,"sub10",3,7,107,8,"-",0,47,13,34,34,1,1,3856,3494,3752,889287,893143,2
"903",906,"sub10",3,7,108,9,"-",0,78,31,47,47,1,1,2520,2307,2407,897646,900166,2
"904",907,"sub10",3,7,109,8,"-",0,47,13,34,34,1,1,3468,3093,3387,904722,908190,2
"905",908,"sub10",3,7,110,11,"-",0,86,25,61,61,1,1,3703,3271,3605,912710,916413,2
"906",909,"sub10",3,7,111,7,"+",1,29,14,43,43,1,1,3870,3600,3756,920972,924842,2
"907",910,"sub10",3,8,112,4,"+",1,57,18,75,75,1,1,2131,1922,2029,930607,932738,2
"908",911,"sub10",3,8,113,8,"-",0,47,13,34,34,1,1,2324,2060,2192,937274,939598,2
"909",912,"sub10",3,8,114,15,"-",1,81,13,68,68,1,1,2637,2401,2524,944151,946788,2
"912",915,"sub10",3,8,116,1,"+",0,42,34,76,76,1,1,3179,2845,3067,970634,973813,2
"913",916,"sub10",3,8,117,2,"+",0,62,16,78,78,1,1,2360,2161,2257,978402,980762,2
"914",917,"sub10",3,8,118,0,"+",0,52,24,76,76,1,1,2831,2610,2722,985305,988136,2
"915",918,"sub10",3,8,119,7,"+",1,29,14,43,43,1,1,2255,2035,2142,992631,994886,2
"916",919,"sub10",3,8,120,7,"+",1,29,14,43,43,1,1,1991,1763,1878,999412,1001403,2
"917",920,"sub10",3,8,121,8,"-",0,47,13,34,34,1,1,2422,2128,2293,1005960,1008382,2
"918",921,"sub10",3,8,122,5,"+",1,48,27,75,75,1,1,3044,2834,2952,1012910,1015954,2
"919",922,"sub10",3,8,123,14,"-",1,71,24,47,47,1,1,4509,4271,4392,1020449,1024958,2
"920",923,"sub10",3,8,124,10,"-",0,68,23,45,45,1,1,4435,4239,4338,1029467,1033902,2
"921",924,"sub10",3,8,125,2,"+",0,62,16,78,78,1,1,2374,2093,2225,1038410,1040784,2
"922",925,"sub10",3,8,126,6,"+",1,43,29,72,72,1,1,3261,2927,3169,1045405,1048666,2
"923",926,"sub10",3,8,127,8,"-",0,47,13,34,34,1,1,3225,2902,3107,1053263,1056488,2
"924",927,"sub10",3,9,128,0,"+",0,52,24,76,76,1,1,3329,2346,3191,1062336,1065665,2
"925",928,"sub10",3,9,129,6,"+",1,43,29,72,72,1,1,2812,2349,2711,1070180,1072992,2
"926",929,"sub10",3,9,130,4,"+",1,57,18,75,75,1,1,1860,1634,1767,1077520,1079380,2
"928",931,"sub10",3,9,131,6,"+",1,43,29,72,72,2,1,424,258,331,1090275,1090699,2
"929",932,"sub10",3,9,132,5,"+",1,48,27,75,75,1,1,2609,2246,2524,1095330,1097939,2
"930",933,"sub10",3,9,133,7,"+",1,29,14,43,43,1,1,2596,2230,2462,1102431,1105027,2
"931",934,"sub10",3,9,134,6,"+",1,43,29,72,72,1,1,1915,1650,1821,1109358,1111273,2
"932",935,"sub10",3,9,135,2,"+",0,62,16,78,78,1,1,1762,1513,1654,1115768,1117530,2
"933",936,"sub10",3,9,136,11,"-",0,86,25,61,61,1,1,3875,3471,3758,1121789,1125664,2
"935",938,"sub10",3,9,137,0,"+",0,52,24,76,76,2,1,1158,885,1033,1135862,1137020,2
"936",939,"sub10",3,9,138,11,"-",0,86,25,61,61,1,1,2240,1858,2091,1141556,1143796,2
"937",940,"sub10",3,9,139,14,"-",1,71,24,47,47,1,1,3095,2785,2970,1148316,1151411,2
"938",941,"sub10",3,9,140,15,"-",1,81,13,68,68,1,1,3338,3106,3230,1155943,1159281,2
"939",942,"sub10",3,9,141,3,"+",0,48,21,69,69,1,1,4003,3535,3845,1163798,1167801,2
"940",943,"sub10",3,9,142,13,"-",1,64,18,46,46,1,1,3062,2790,2946,1172563,1175625,2
"941",944,"sub10",3,9,143,8,"-",0,47,13,34,34,1,1,2576,2295,2427,1180451,1183027,2
"942",945,"sub10",3,10,144,11,"-",0,86,25,61,61,1,1,1822,1444,1705,1188917,1190739,2
"943",946,"sub10",3,10,145,10,"-",0,68,23,45,45,1,1,4103,3846,3973,1195201,1199304,2
"944",947,"sub10",3,10,146,14,"-",1,71,24,47,47,1,1,3091,2789,2982,1203793,1206884,2
"945",948,"sub10",3,10,147,14,"-",1,71,24,47,47,1,1,2800,2526,2703,1211412,1214212,2
"946",949,"sub10",3,10,148,12,"-",1,51,19,32,32,1,1,2917,2458,2630,1218728,1221645,2
"947",950,"sub10",3,10,149,13,"-",1,64,18,46,46,1,1,2121,1888,1988,1226074,1228195,2
"948",951,"sub10",3,10,150,12,"-",1,51,19,32,32,1,1,2171,1890,2037,1232740,1234911,2
"949",952,"sub10",3,10,151,12,"-",1,51,19,32,32,1,1,1130,883,986,1239449,1240579,2
"950",953,"sub10",3,10,152,0,"+",0,52,24,76,76,1,1,1741,1533,1658,1245095,1246836,2
"951",954,"sub10",3,10,153,1,"+",0,42,34,76,76,1,1,3947,3693,3822,1251353,1255300,2
"952",955,"sub10",3,10,154,6,"+",1,43,29,72,72,1,1,2494,2116,2395,1259812,1262306,2
"953",956,"sub10",3,10,155,12,"-",1,51,19,32,32,1,1,2199,1962,2097,1266712,1268911,2
"954",957,"sub10",3,10,156,9,"-",0,78,31,47,47,1,1,4422,4209,4320,1273173,1277595,2
"955",958,"sub10",3,10,157,11,"-",0,86,25,61,61,1,1,1803,1476,1699,1282140,1283943,2
"956",959,"sub10",3,10,158,4,"+",1,57,18,75,75,1,1,2136,1907,2032,1288207,1290343,2
"957",960,"sub10",3,10,159,14,"-",1,71,24,47,47,1,1,2269,2044,2172,1294844,1297113,2
"958",961,"sub10",3,11,160,9,"-",0,78,31,47,47,1,1,2099,1894,2013,1303019,1305118,2
"959",962,"sub10",3,11,161,1,"+",0,42,34,76,76,1,1,2198,1958,2103,1309620,1311818,2
"960",963,"sub10",3,11,162,2,"+",0,62,16,78,78,1,1,1906,1649,1767,1316205,1318111,2
"961",964,"sub10",3,11,163,14,"-",1,71,24,47,47,1,1,2736,2570,2654,1322562,1325298,2
"962",965,"sub10",3,11,164,6,"+",1,43,29,72,72,1,1,2639,2432,2573,1329557,1332196,2
"963",966,"sub10",3,11,165,8,"-",0,47,13,34,34,1,1,2715,2523,2647,1336454,1339169,2
"964",967,"sub10",3,11,166,9,"-",0,78,31,47,47,1,1,1804,1572,1686,1343430,1345234,2
"965",968,"sub10",3,11,167,12,"-",1,51,19,32,32,1,1,2712,2459,2624,1349491,1352203,2
"966",969,"sub10",3,11,168,7,"+",1,29,14,43,43,1,1,3659,3500,3616,1356463,1360122,2
"967",970,"sub10",3,11,169,4,"+",1,57,18,75,75,1,1,1834,1616,1735,1364384,1366218,2
"968",971,"sub10",3,11,170,7,"+",1,29,14,43,43,1,1,2566,2345,2450,1370474,1373040,2
"969",972,"sub10",3,11,171,10,"-",0,68,23,45,45,1,1,3327,3061,3193,1377302,1380629,2
"970",973,"sub10",3,11,172,5,"+",1,48,27,75,75,1,1,1913,1648,1780,1384889,1386802,2
"971",974,"sub10",3,11,173,9,"-",0,78,31,47,47,1,1,1864,1643,1774,1391060,1392924,2
"972",975,"sub10",3,11,174,11,"-",0,86,25,61,61,1,1,2856,2533,2731,1397187,1400043,2
"973",976,"sub10",3,11,175,12,"-",1,51,19,32,32,1,1,2556,2363,2482,1404301,1406857,2
"974",977,"sub10",3,12,176,5,"+",1,48,27,75,75,1,1,1835,1614,1750,1412383,1414218,2
"975",978,"sub10",3,12,177,0,"+",0,52,24,76,76,1,1,2290,2070,2165,1418474,1420764,2
"976",979,"sub10",3,12,178,13,"-",1,64,18,46,46,1,1,2122,1910,2022,1425026,1427148,2
"977",980,"sub10",3,12,179,14,"-",1,71,24,47,47,1,1,3724,3564,3675,1431405,1435129,2
"978",981,"sub10",3,12,180,8,"-",0,47,13,34,34,1,1,2879,2693,2829,1439387,1442266,2
"979",982,"sub10",3,12,181,13,"-",1,64,18,46,46,1,1,2575,2385,2452,1446529,1449104,2
"980",983,"sub10",3,12,182,11,"-",0,86,25,61,61,1,1,2693,2229,2548,1453366,1456059,2
"981",984,"sub10",3,12,183,12,"-",1,51,19,32,32,1,1,3105,2963,3055,1460321,1463426,2
"982",985,"sub10",3,12,184,6,"+",1,43,29,72,72,1,1,2008,1738,1878,1467687,1469695,2
"983",986,"sub10",3,12,185,14,"-",1,71,24,47,47,1,1,2141,1874,1977,1473951,1476092,2
"984",987,"sub10",3,12,186,11,"-",0,86,25,61,61,1,1,1973,1610,1831,1480353,1482326,2
"985",988,"sub10",3,12,187,14,"-",1,71,24,47,47,1,1,1797,1589,1682,1486585,1488382,2
"986",989,"sub10",3,12,188,13,"-",1,64,18,46,46,1,1,1960,1711,1839,1492641,1494601,2
"987",990,"sub10",3,12,189,1,"+",0,42,34,76,76,1,1,2239,2007,2131,1498860,1501099,2
"988",991,"sub10",3,12,190,2,"+",0,62,16,78,78,1,1,2345,1558,2225,1505361,1507706,2
"989",992,"sub10",3,12,191,7,"+",1,29,14,43,43,1,1,1927,1693,1797,1511961,1513888,2
"990",993,"sub10",3,13,192,15,"-",1,81,13,68,68,1,1,3014,2790,2902,1519470,1522484,2
"991",994,"sub10",3,13,193,6,"+",1,43,29,72,72,1,1,2148,1786,2049,1526744,1528892,2
"992",995,"sub10",3,13,194,11,"-",0,86,25,61,61,1,1,1860,1497,1742,1533150,1535010,2
"993",996,"sub10",3,13,195,6,"+",1,43,29,72,72,1,1,2459,2155,2379,1539270,1541729,2
"994",997,"sub10",3,13,196,2,"+",0,62,16,78,78,1,1,1917,1595,1837,1545986,1547903,2
"995",998,"sub10",3,13,197,4,"+",1,57,18,75,75,1,1,1846,1484,1714,1552166,1554012,2
"996",999,"sub10",3,13,198,4,"+",1,57,18,75,75,1,1,1516,1112,1390,1558266,1559782,2
"997",1000,"sub10",3,13,199,13,"-",1,64,18,46,46,1,1,2318,2029,2218,1564037,1566355,2
"998",1001,"sub10",3,13,200,4,"+",1,57,18,75,75,1,1,1694,1304,1564,1570616,1572310,2
"999",1002,"sub10",3,13,201,15,"-",1,81,13,68,68,1,1,4647,4313,4535,1576572,1581219,2
"1000",1003,"sub10",3,13,202,4,"+",1,57,18,75,75,1,1,1981,1617,1839,1585478,1587459,2
"1001",1004,"sub10",3,13,203,10,"-",0,68,23,45,45,1,1,3141,2839,3016,1591719,1594860,2
"1002",1005,"sub10",3,13,204,6,"+",1,43,29,72,72,1,1,2024,1665,1887,1599119,1601143,2
"1003",1006,"sub10",3,13,205,13,"-",1,64,18,46,46,1,1,2299,2017,2169,1605403,1607702,2
"1005",1008,"sub10",3,13,206,7,"+",1,29,14,43,43,2,1,611,362,484,1620719,1621330,2
"1006",1009,"sub10",3,13,207,1,"+",0,42,34,76,76,1,1,1996,1663,1876,1625884,1627880,2
"1007",1010,"sub10",3,14,208,9,"-",0,78,31,47,47,1,1,2144,1887,2043,1633487,1635631,2
"1008",1011,"sub10",3,14,209,7,"+",1,29,14,43,43,1,1,2199,1744,2083,1639885,1642084,2
"1009",1012,"sub10",3,14,210,4,"+",1,57,18,75,75,1,1,2324,1963,2208,1646569,1648893,2
"1010",1013,"sub10",3,14,211,13,"-",1,64,18,46,46,1,1,2753,2205,2575,1653283,1656036,2
"1011",1014,"sub10",3,14,212,12,"-",1,51,19,32,32,1,1,3080,2765,2906,1660297,1663377,2
"1012",1015,"sub10",3,14,213,6,"+",1,43,29,72,72,1,1,2131,1720,1990,1667630,1669761,2
"1013",1016,"sub10",3,14,214,5,"+",1,48,27,75,75,1,1,2179,1748,2070,1674020,1676199,2
"1014",1017,"sub10",3,14,215,14,"-",1,71,24,47,47,1,1,2192,1883,2071,1680460,1682652,2
"1015",1018,"sub10",3,14,216,5,"+",1,48,27,75,75,1,1,1621,1284,1488,1686909,1688530,2
"1016",1019,"sub10",3,14,217,9,"-",0,78,31,47,47,1,1,2025,1720,1916,1692790,1694815,2
"1017",1020,"sub10",3,14,218,7,"+",1,29,14,43,43,1,1,3511,3156,3398,1699075,1702586,2
"1018",1021,"sub10",3,14,219,13,"-",1,64,18,46,46,1,1,2659,2381,2550,1706838,1709497,2
"1019",1022,"sub10",3,14,220,11,"-",0,86,25,61,61,1,1,2429,2055,2313,1713753,1716182,2
"1020",1023,"sub10",3,14,221,7,"+",1,29,14,43,43,1,1,1794,1444,1672,1720441,1722235,2
"1021",1024,"sub10",3,14,222,12,"-",1,51,19,32,32,1,1,2359,2070,2242,1726495,1728854,2
"1022",1025,"sub10",3,14,223,6,"+",1,43,29,72,72,1,1,3569,3272,3449,1733116,1736685,2
"1023",1026,"sub10",3,15,224,14,"-",1,71,24,47,47,1,1,2227,1849,2103,1742212,1744439,2
"1024",1027,"sub10",3,15,225,13,"-",1,64,18,46,46,1,1,2475,2198,2354,1748702,1751177,2
"1025",1028,"sub10",3,15,226,0,"+",0,52,24,76,76,1,1,2723,2364,2581,1755439,1758162,2
"1026",1029,"sub10",3,15,227,0,"+",0,52,24,76,76,1,1,2201,1847,2073,1762418,1764619,2
"1027",1030,"sub10",3,15,228,15,"-",1,81,13,68,68,1,1,1825,1559,1704,1768880,1770705,2
"1028",1031,"sub10",3,15,229,4,"+",1,57,18,75,75,1,1,2194,1689,1979,1774966,1777160,2
"1029",1032,"sub10",3,15,230,4,"+",1,57,18,75,75,1,1,1264,833,1155,1781421,1782685,2
"1030",1033,"sub10",3,15,231,5,"+",1,48,27,75,75,1,1,2326,2081,2214,1786942,1789268,2
"1031",1034,"sub10",3,15,232,10,"-",0,68,23,45,45,1,1,3905,3684,3800,1793521,1797426,2
"1032",1035,"sub10",3,15,233,3,"+",0,48,21,69,69,1,1,6843,3121,3436,1801685,1808528,2
"1033",1036,"sub10",3,15,234,15,"-",1,81,13,68,68,1,1,2164,1891,2071,1813070,1815234,2
"1034",1037,"sub10",3,15,235,9,"-",0,78,31,47,47,1,1,2304,1998,2184,1819493,1821797,2
"1035",1038,"sub10",3,15,236,15,"-",1,81,13,68,68,1,1,2595,1985,2454,1826050,1828645,2
"1036",1039,"sub10",3,15,237,11,"-",0,86,25,61,61,1,1,3268,2938,3175,1832905,1836173,2
"1037",1040,"sub10",3,15,238,1,"+",0,42,34,76,76,1,1,2419,2160,2319,1840433,1842852,2
"1038",1041,"sub10",3,15,239,3,"+",0,48,21,69,69,1,1,3180,2909,3049,1847114,1850294,2
"1039",1042,"sub10",3,16,240,3,"+",0,48,21,69,69,1,1,2074,1825,1949,1855828,1857902,2
"1040",1043,"sub10",3,16,241,14,"-",1,71,24,47,47,1,1,2017,1792,1907,1862161,1864178,2
"1041",1044,"sub10",3,16,242,11,"-",0,86,25,61,61,1,1,2582,2188,2482,1868435,1871017,2
"1042",1045,"sub10",3,16,243,10,"-",0,68,23,45,45,1,1,2866,2544,2733,1875278,1878144,2
"1043",1046,"sub10",3,16,244,13,"-",1,64,18,46,46,1,1,2327,1896,2182,1882406,1884733,2
"1044",1047,"sub10",3,16,245,15,"-",1,81,13,68,68,1,1,2727,2263,2602,1888991,1891718,2
"1045",1048,"sub10",3,16,246,1,"+",0,42,34,76,76,1,1,1958,1635,1828,1895979,1897937,2
"1046",1049,"sub10",3,16,247,0,"+",0,52,24,76,76,1,1,2457,2114,2313,1902193,1904650,2
"1047",1050,"sub10",3,16,248,1,"+",0,42,34,76,76,1,1,1573,1275,1436,1908911,1910484,2
"1048",1051,"sub10",3,16,249,13,"-",1,64,18,46,46,1,1,1976,1700,1892,1914746,1916722,2
"1049",1052,"sub10",3,16,250,12,"-",1,51,19,32,32,1,1,2609,1803,1895,1920976,1923585,2
"1050",1053,"sub10",3,16,251,1,"+",0,42,34,76,76,1,1,1546,1318,1441,1927844,1929390,2
"1051",1054,"sub10",3,16,252,14,"-",1,71,24,47,47,1,1,2387,2147,2274,1933648,1936035,2
"1052",1055,"sub10",3,16,253,9,"-",0,78,31,47,47,1,1,2105,1865,1997,1940296,1942401,2
"1053",1056,"sub10",3,16,254,3,"+",0,48,21,69,69,1,1,2398,2148,2265,1946661,1949059,2
"1054",1057,"sub10",3,16,255,6,"+",1,43,29,72,72,1,1,4018,3622,3909,1953315,1957333,2
"1055",1058,"sub10",3,17,256,4,"+",1,57,18,75,75,1,1,2054,1786,1921,1962967,1965021,2
"1057",1060,"sub10",3,17,257,3,"+",0,48,21,69,69,2,1,896,253,376,1976107,1977003,2
"1058",1061,"sub10",3,17,258,8,"-",0,47,13,34,34,1,1,3700,3304,3562,1981262,1984962,2
"1059",1062,"sub10",3,17,259,3,"+",0,48,21,69,69,1,1,2537,1927,2210,1989215,1991752,2
"1060",1063,"sub10",3,17,260,10,"-",0,68,23,45,45,1,1,3512,3169,3407,1996012,1999524,2
"1061",1064,"sub10",3,17,261,9,"-",0,78,31,47,47,1,1,1777,1487,1652,2003783,2005560,2
"1062",1065,"sub10",3,17,262,2,"+",0,62,16,78,78,1,1,2549,2223,2443,2009818,2012367,2
"1063",1066,"sub10",3,17,263,7,"+",1,29,14,43,43,1,1,2967,2730,2891,2016628,2019595,2
"1064",1067,"sub10",3,17,264,9,"-",0,78,31,47,47,1,1,2608,1544,2288,2023855,2026463,2
"1065",1068,"sub10",3,17,265,11,"-",0,86,25,61,61,1,1,2431,2019,2270,2030968,2033399,2
"1066",1069,"sub10",3,17,266,1,"+",0,42,34,76,76,1,1,2162,1613,1908,2037658,2039820,2
"1067",1070,"sub10",3,17,267,10,"-",0,68,23,45,45,1,1,3653,3174,3492,2044076,2047729,2
"1068",1071,"sub10",3,17,268,6,"+",1,43,29,72,72,1,1,3685,1827,2834,2051982,2055667,2
"1069",1072,"sub10",3,17,269,13,"-",1,64,18,46,46,1,1,2446,2156,2362,2059926,2062372,2
"1070",1073,"sub10",3,17,270,0,"+",0,52,24,76,76,1,1,2693,2376,2572,2066633,2069326,2
"1071",1074,"sub10",3,17,271,6,"+",1,43,29,72,72,1,1,2965,2456,2721,2073586,2076551,2
"1072",1075,"sub10",3,18,272,8,"-",0,47,13,34,34,1,1,2942,2558,2797,2082047,2084989,2
"1073",1076,"sub10",3,18,273,10,"-",0,68,23,45,45,1,1,2162,1882,2066,2089248,2091410,2
"1074",1077,"sub10",3,18,274,3,"+",0,48,21,69,69,1,1,2421,2155,2296,2095673,2098094,2
"1075",1078,"sub10",3,18,275,10,"-",0,68,23,45,45,1,1,2105,1798,1992,2102350,2104455,2
"1076",1079,"sub10",3,18,276,15,"-",1,81,13,68,68,1,1,3020,2650,2924,2108715,2111735,2
"1077",1080,"sub10",3,18,277,2,"+",0,62,16,78,78,1,1,2456,2230,2347,2115994,2118450,2
"1078",1081,"sub10",3,18,278,10,"-",0,68,23,45,45,1,1,1824,1555,1700,2122711,2124535,2
"1079",1082,"sub10",3,18,279,11,"-",0,86,25,61,61,1,1,2103,1651,1954,2128795,2130898,2
"1080",1083,"sub10",3,18,280,11,"-",0,86,25,61,61,1,1,1455,853,1316,2135160,2136615,2
"1081",1084,"sub10",3,18,281,2,"+",0,62,16,78,78,1,1,2062,1699,1888,2140877,2142939,2
"1082",1085,"sub10",3,18,282,12,"-",1,51,19,32,32,1,1,2598,2081,2387,2147202,2149800,2
"1083",1086,"sub10",3,18,283,3,"+",0,48,21,69,69,1,1,2882,2569,2744,2154060,2156942,2
"1084",1087,"sub10",3,18,284,1,"+",0,42,34,76,76,1,1,2341,2063,2240,2161198,2163539,2
"1085",1088,"sub10",3,18,285,7,"+",1,29,14,43,43,1,1,3193,2908,3084,2167802,2170995,2
"1086",1089,"sub10",3,18,286,5,"+",1,48,27,75,75,1,1,1966,1713,1874,2175256,2177222,2
"1087",1090,"sub10",3,18,287,0,"+",0,52,24,76,76,1,1,2305,1883,2218,2181480,2183785,2
"1088",1091,"sub10",3,19,288,6,"+",1,43,29,72,72,1,1,2755,2332,2546,2189548,2192303,2
"1089",1092,"sub10",3,19,289,2,"+",0,62,16,78,78,1,1,3531,2305,3422,2196556,2200087,2
"1090",1093,"sub10",3,19,290,9,"-",0,78,31,47,47,1,1,2306,2021,2190,2204344,2206650,2
"1091",1094,"sub10",3,19,291,3,"+",0,48,21,69,69,1,1,3166,2922,3062,2210908,2214074,2
"1092",1095,"sub10",3,19,292,14,"-",1,71,24,47,47,1,1,1953,1716,1850,2218335,2220288,2
"1093",1096,"sub10",3,19,293,4,"+",1,57,18,75,75,1,1,1811,1509,1673,2224548,2226359,2
"1094",1097,"sub10",3,19,294,2,"+",0,62,16,78,78,1,1,2046,1700,1930,2230617,2232663,2
"1095",1098,"sub10",3,19,295,1,"+",0,42,34,76,76,1,1,1838,1514,1757,2236920,2238758,2
"1097",1100,"sub10",3,19,296,0,"+",0,52,24,76,76,2,1,524,273,409,2250211,2250735,2
"1098",1101,"sub10",3,19,297,15,"-",1,81,13,68,68,1,1,2570,2317,2482,2254996,2257566,2
"1099",1102,"sub10",3,19,298,10,"-",0,68,23,45,45,1,1,2441,2221,2345,2261829,2264270,2
"1100",1103,"sub10",3,19,299,12,"-",1,51,19,32,32,1,1,2067,1822,1942,2268532,2270599,2
"1101",1104,"sub10",3,19,300,11,"-",0,86,25,61,61,1,1,3047,2730,2950,2274858,2277905,2
"1102",1105,"sub10",3,19,301,13,"-",1,64,18,46,46,1,1,1862,1524,1742,2282165,2284027,2
"1103",1106,"sub10",3,19,302,6,"+",1,43,29,72,72,1,1,2202,1855,2060,2288285,2290487,2
"1104",1107,"sub10",3,19,303,3,"+",0,48,21,69,69,1,1,3897,1523,3691,2294747,2298644,3
"1105",1108,"sub10",3,20,304,3,"+",0,48,21,69,69,1,1,2905,2592,2756,2304458,2307363,2
"1106",1109,"sub10",3,20,305,3,"+",0,48,21,69,69,1,1,2203,1796,2013,2311623,2313826,2
"1107",1110,"sub10",3,20,306,1,"+",0,42,34,76,76,1,1,2367,1948,2209,2318088,2320455,2
"1108",1111,"sub10",3,20,307,0,"+",0,52,24,76,76,1,1,2670,2287,2541,2324714,2327384,2
"1109",1112,"sub10",3,20,308,12,"-",1,51,19,32,32,1,1,2366,2110,2253,2331642,2334008,2
"1110",1113,"sub10",3,20,309,15,"-",1,81,13,68,68,1,1,2768,2531,2658,2338269,2341037,2
"1111",1114,"sub10",3,20,310,8,"-",0,47,13,34,34,1,1,3328,2937,3167,2345294,2348622,2
"1112",1115,"sub10",3,20,311,4,"+",1,57,18,75,75,1,1,1629,1328,1517,2352880,2354509,2
"1113",1116,"sub10",3,20,312,10,"-",0,68,23,45,45,1,1,3167,2955,3072,2358770,2361937,2
"1114",1117,"sub10",3,20,313,5,"+",1,48,27,75,75,1,1,1585,1143,1445,2366200,2367785,2
"1115",1118,"sub10",3,20,314,11,"-",0,86,25,61,61,1,1,2383,2019,2273,2372042,2374425,2
"1116",1119,"sub10",3,20,315,0,"+",0,52,24,76,76,1,1,2055,1685,1930,2378678,2380733,2
"1117",1120,"sub10",3,20,316,7,"+",1,29,14,43,43,1,1,2018,1745,1917,2384992,2387010,2
"1118",1121,"sub10",3,20,317,8,"-",0,47,13,34,34,1,1,3987,3669,3866,2391270,2395257,2
"1119",1122,"sub10",3,20,318,8,"-",0,47,13,34,34,1,1,1897,1526,1691,2399513,2401410,2
"1120",1123,"sub10",3,20,319,13,"-",1,64,18,46,46,1,1,2425,2098,2292,2405663,2408088,2
"1121",1124,"sub10",3,21,320,2,"+",0,62,16,78,78,1,1,2565,2202,2437,2414396,2416961,2
"1122",1125,"sub10",3,21,321,10,"-",0,68,23,45,45,1,1,3234,3046,3146,2421215,2424449,2
"1123",1126,"sub10",3,21,322,1,"+",0,42,34,76,76,1,1,1829,1511,1687,2428708,2430537,2
"1124",1127,"sub10",3,21,323,5,"+",1,48,27,75,75,1,1,1808,1519,1700,2434793,2436601,2
"1125",1128,"sub10",3,21,324,11,"-",0,86,25,61,61,1,1,1893,1554,1783,2440865,2442758,2
"1126",1129,"sub10",3,21,325,2,"+",0,62,16,78,78,1,1,2189,1567,2032,2447019,2449208,2
"1127",1130,"sub10",3,21,326,9,"-",0,78,31,47,47,1,1,3505,3245,3389,2453466,2456971,2
"1128",1131,"sub10",3,21,327,1,"+",0,42,34,76,76,1,1,1814,1467,1705,2461233,2463047,2
"1129",1132,"sub10",3,21,328,8,"-",0,47,13,34,34,1,1,2868,2603,2764,2467302,2470170,2
"1131",1134,"sub10",3,21,329,13,"-",1,64,18,46,46,2,1,2907,2633,2762,2478593,2481500,2
"1132",1135,"sub10",3,21,330,3,"+",0,48,21,69,69,1,1,2283,2014,2165,2485761,2488044,2
"1133",1136,"sub10",3,21,331,0,"+",0,52,24,76,76,1,1,3266,2150,2743,2492305,2495571,2
"1134",1137,"sub10",3,21,332,10,"-",0,68,23,45,45,1,1,2971,2633,2863,2499832,2502803,2
"1135",1138,"sub10",3,21,333,10,"-",0,68,23,45,45,1,1,1638,1438,1557,2507057,2508695,2
"1136",1139,"sub10",3,21,334,4,"+",1,57,18,75,75,1,1,1641,1404,1545,2512956,2514597,2
"1137",1140,"sub10",3,21,335,15,"-",1,81,13,68,68,1,1,2984,2771,2896,2518852,2521836,2
"1138",1141,"sub10",3,22,336,8,"-",0,47,13,34,34,1,1,2553,2196,2454,2528055,2530608,2
"1139",1142,"sub10",3,22,337,15,"-",1,81,13,68,68,1,1,1734,1484,1634,2534869,2536603,2
"1140",1143,"sub10",3,22,338,0,"+",0,52,24,76,76,1,1,2201,1851,2093,2540865,2543066,2
"1141",1144,"sub10",3,22,339,3,"+",0,48,21,69,69,1,1,1894,1670,1782,2547327,2549221,2
"1142",1145,"sub10",3,22,340,3,"+",0,48,21,69,69,1,1,1621,1323,1484,2553481,2555102,2
"1143",1146,"sub10",3,22,341,11,"-",0,86,25,61,61,1,1,2707,2345,2599,2559357,2562064,2
"1144",1147,"sub10",3,22,342,3,"+",0,48,21,69,69,1,1,2743,1918,2059,2566324,2569067,2
"1146",1149,"sub10",3,22,343,8,"-",0,47,13,34,34,2,1,3298,2943,3172,2577381,2580679,2
"1147",1150,"sub10",3,22,344,6,"+",1,43,29,72,72,1,1,3617,2500,3313,2584932,2588549,2
"1148",1151,"sub10",3,22,345,6,"+",1,43,29,72,72,1,1,2014,1622,1836,2593265,2595279,2
"1149",1152,"sub10",3,22,346,0,"+",0,52,24,76,76,1,1,1632,1326,1531,2599539,2601171,2
"1150",1153,"sub10",3,22,347,14,"-",1,71,24,47,47,1,1,2710,2468,2587,2605432,2608142,2
"1151",1154,"sub10",3,22,348,2,"+",0,62,16,78,78,1,1,2488,2161,2402,2612403,2614891,2
"1152",1155,"sub10",3,22,349,5,"+",1,48,27,75,75,1,1,2232,1851,2120,2619153,2621385,2
"1153",1156,"sub10",3,22,350,5,"+",1,48,27,75,75,1,1,2129,1836,2036,2625643,2627772,2
"1154",1157,"sub10",3,22,351,12,"-",1,51,19,32,32,1,1,2329,2064,2179,2632029,2634358,2
"1155",1158,"sub10",3,23,352,15,"-",1,81,13,68,68,1,1,2744,2458,2627,2640200,2642944,2
"1156",1159,"sub10",3,23,353,12,"-",1,51,19,32,32,1,1,2030,1809,1917,2647207,2649237,2
"1157",1160,"sub10",3,23,354,9,"-",0,78,31,47,47,1,1,2848,2618,2692,2653495,2656343,2
"1158",1161,"sub10",3,23,355,5,"+",1,48,27,75,75,1,1,1981,1582,1857,2660601,2662582,2
"1159",1162,"sub10",3,23,356,12,"-",1,51,19,32,32,1,1,1866,1626,1751,2666843,2668709,2
"1160",1163,"sub10",3,23,357,9,"-",0,78,31,47,47,1,1,1705,1411,1564,2672971,2674676,2
"1161",1164,"sub10",3,23,358,15,"-",1,81,13,68,68,1,1,1464,1219,1335,2678933,2680397,2
"1162",1165,"sub10",3,23,359,1,"+",0,42,34,76,76,1,1,1912,1647,1803,2684654,2686566,2
"1163",1166,"sub10",3,23,360,8,"-",0,47,13,34,34,1,1,2999,2653,2875,2690824,2693823,2
"1164",1167,"sub10",3,23,361,10,"-",0,68,23,45,45,1,1,1885,1632,1776,2698082,2699967,2
"1165",1168,"sub10",3,23,362,5,"+",1,48,27,75,75,1,1,1518,1143,1385,2704223,2705741,2
"1166",1169,"sub10",3,23,363,5,"+",1,48,27,75,75,1,1,2130,1787,2001,2710002,2712132,2
"1167",1170,"sub10",3,23,364,3,"+",0,48,21,69,69,1,1,1873,1596,1761,2716393,2718266,2
"1168",1171,"sub10",3,23,365,7,"+",1,29,14,43,43,1,1,2292,2015,2175,2722523,2724815,2
"1169",1172,"sub10",3,23,366,10,"-",0,68,23,45,45,1,1,1992,1760,1875,2729077,2731069,2
"1170",1173,"sub10",3,23,367,7,"+",1,29,14,43,43,1,1,3314,3008,3188,2735326,2738640,2
"1171",1174,"sub10",3,24,368,5,"+",1,48,27,75,75,1,1,2111,1793,2006,2744514,2746625,2
"1172",1175,"sub10",3,24,369,14,"-",1,71,24,47,47,1,1,2761,2415,2636,2750884,2753645,2
"1173",1176,"sub10",3,24,370,3,"+",0,48,21,69,69,1,1,2153,1880,2048,2757903,2760056,2
"1174",1177,"sub10",3,24,371,1,"+",0,42,34,76,76,1,1,2648,2403,2547,2764314,2766962,2
"1175",1178,"sub10",3,24,372,3,"+",0,48,21,69,69,1,1,1742,1480,1644,2771222,2772964,2
"1176",1179,"sub10",3,24,373,9,"-",0,78,31,47,47,1,1,1934,1664,1804,2777225,2779159,2
"1177",1180,"sub10",3,24,374,4,"+",1,57,18,75,75,1,1,2203,1945,2086,2783420,2785623,2
"1178",1181,"sub10",3,24,375,9,"-",0,78,31,47,47,1,1,1929,1671,1812,2789882,2791811,2
"1179",1182,"sub10",3,24,376,6,"+",1,43,29,72,72,1,1,2417,2119,2332,2796068,2798485,2
"1180",1183,"sub10",3,24,377,7,"+",1,29,14,43,43,1,1,1968,1679,1859,2802746,2804714,2
"1181",1184,"sub10",3,24,378,2,"+",0,62,16,78,78,1,1,2859,2666,2773,2808968,2811827,2
"1182",1185,"sub10",3,24,379,4,"+",1,57,18,75,75,1,1,1446,1184,1345,2816086,2817532,2
"1183",1186,"sub10",3,24,380,15,"-",1,81,13,68,68,1,1,1452,1187,1332,2821789,2823241,2
"1184",1187,"sub10",3,24,381,0,"+",0,52,24,76,76,1,1,2205,1846,2072,2827498,2829703,2
"1185",1188,"sub10",3,24,382,13,"-",1,64,18,46,46,1,1,1613,1372,1516,2833966,2835579,2
"1186",1189,"sub10",3,24,383,12,"-",1,51,19,32,32,1,1,1953,1712,1837,2839838,2841791,2
"1187",1191,"sub10",4,1,0,12,"-",1,62,28,34,34,1,1,5020,4737,4878,11557,16577,2
"1188",1192,"sub10",4,1,1,6,"+",1,67,15,82,82,1,1,3545,3089,3302,21240,24785,2
"1189",1193,"sub10",4,1,2,7,"+",1,49,24,73,73,1,1,4054,3648,3829,29372,33426,2
"1190",1194,"sub10",4,1,3,14,"-",1,75,26,49,49,1,1,4204,3749,4014,37961,42165,2
"1191",1195,"sub10",4,1,4,7,"+",1,49,24,73,73,1,1,3005,2501,2783,46692,49697,2
"1192",1196,"sub10",4,1,5,14,"-",1,75,26,49,49,1,1,4714,4319,4544,54212,58926,2
"1193",1197,"sub10",4,1,6,13,"-",1,84,35,49,49,1,1,5606,5207,5412,63465,69071,2
"1195",1199,"sub10",4,1,7,0,"+",0,41,23,64,64,2,1,966,587,760,80620,81586,2
"1196",1200,"sub10",4,1,8,1,"+",0,24,13,37,37,1,1,4390,3437,4095,86097,90487,2
"1197",1201,"sub10",4,1,9,8,"-",0,67,14,53,53,1,1,4003,3700,3885,94738,98741,2
"1198",1202,"sub10",4,1,10,10,"-",0,84,52,32,32,1,1,5425,5126,5286,103263,108688,2
"1199",1203,"sub10",4,1,11,15,"-",1,57,18,39,39,1,1,4009,3509,3770,113239,117248,2
"1200",1204,"sub10",4,1,12,0,"+",0,41,23,64,64,1,1,2693,2262,2504,121718,124411,2
"1201",1205,"sub10",4,1,13,5,"+",1,46,28,74,74,1,1,3682,3299,3528,128894,132576,2
"1202",1206,"sub10",4,1,14,8,"-",0,67,14,53,53,1,1,3560,3255,3428,137183,140743,2
"1203",1207,"sub10",4,1,15,7,"+",1,49,24,73,73,1,1,3280,2910,3119,145424,148704,2
"1204",1208,"sub10",4,2,16,5,"+",1,46,28,74,74,1,1,3106,2638,2896,154656,157762,2
"1205",1209,"sub10",4,2,17,8,"-",0,67,14,53,53,1,1,2570,2207,2428,162234,164804,2
"1206",1210,"sub10",4,2,18,8,"-",0,67,14,53,53,1,1,2208,1857,2041,169330,171538,2
"1207",1211,"sub10",4,2,19,15,"-",1,57,18,39,39,1,1,3089,2626,2863,176049,179138,2
"1208",1212,"sub10",4,2,20,6,"+",1,67,15,82,82,1,1,4346,3161,4152,183662,188008,2
"1209",1213,"sub10",4,2,21,4,"+",1,37,28,65,65,1,1,4521,3539,4229,192579,197100,2
"1210",1214,"sub10",4,2,22,1,"+",0,24,13,37,37,1,1,2957,2424,2839,201622,204579,2
"1211",1215,"sub10",4,2,23,3,"+",0,47,31,78,78,1,1,3791,3222,3516,209089,212880,2
"1212",1216,"sub10",4,2,24,2,"+",0,42,37,79,79,1,1,4558,3897,4142,217445,222003,2
"1213",1217,"sub10",4,2,25,12,"-",1,62,28,34,34,1,1,5301,4909,5156,226379,231680,2
"1214",1218,"sub10",4,2,26,9,"-",0,79,21,58,58,1,1,4007,3664,3845,236227,240234,2
"1215",1219,"sub10",4,2,27,9,"-",0,79,21,58,58,1,1,1668,1359,1535,244801,246469,2
"1216",1220,"sub10",4,2,28,9,"-",0,79,21,58,58,1,1,1826,1504,1689,250968,252794,2
"1217",1221,"sub10",4,2,29,7,"+",1,49,24,73,73,1,1,3710,3324,3553,257288,260998,2
"1218",1222,"sub10",4,2,30,14,"-",1,75,26,49,49,1,1,3884,3416,3735,265538,269422,2
"1219",1223,"sub10",4,2,31,15,"-",1,57,18,39,39,1,1,3680,3217,3459,273983,277663,2
"1220",1224,"sub10",4,3,32,2,"+",0,42,37,79,79,1,1,3100,2455,2700,283697,286797,2
"1221",1225,"sub10",4,3,33,8,"-",0,67,14,53,53,1,1,3808,3396,3614,291353,295161,2
"1222",1226,"sub10",4,3,34,2,"+",0,42,37,79,79,1,1,2835,2407,2653,299672,302507,2
"1223",1227,"sub10",4,3,35,8,"-",0,67,14,53,53,1,1,2758,2432,2629,307014,309772,2
"1224",1228,"sub10",4,3,36,14,"-",1,75,26,49,49,1,1,3950,3583,3808,314032,317982,2
"1225",1229,"sub10",4,3,37,15,"-",1,57,18,39,39,1,1,2534,2139,2360,322244,324778,2
"1226",1230,"sub10",4,3,38,11,"-",0,59,18,41,41,1,1,3506,2848,3215,329039,332545,2
"1227",1231,"sub10",4,3,39,6,"+",1,67,15,82,82,1,1,4389,3873,4256,336798,341187,2
"1228",1232,"sub10",4,3,40,3,"+",0,47,31,78,78,1,1,2055,1755,1943,345449,347504,2
"1229",1233,"sub10",4,3,41,9,"-",0,79,21,58,58,1,1,3315,3001,3194,351764,355079,2
"1230",1234,"sub10",4,3,42,7,"+",1,49,24,73,73,1,1,5444,4810,5067,359336,364780,2
"1231",1235,"sub10",4,3,43,14,"-",1,75,26,49,49,1,1,4017,3618,3842,369037,373054,2
"1232",1236,"sub10",4,3,44,11,"-",0,59,18,41,41,1,1,3314,2935,3137,377313,380627,2
"1233",1237,"sub10",4,3,45,4,"+",1,37,28,65,65,1,1,2919,2613,2786,384884,387803,2
"1234",1238,"sub10",4,3,46,11,"-",0,59,18,41,41,1,1,2992,2658,2867,392056,395048,2
"1235",1239,"sub10",4,3,47,8,"-",0,67,14,53,53,1,1,2973,2549,2782,399309,402282,2
"1236",1240,"sub10",4,4,48,14,"-",1,75,26,49,49,1,1,3180,2846,3039,407929,411109,2
"1237",1241,"sub10",4,4,49,2,"+",0,42,37,79,79,1,1,2672,2379,2527,415366,418038,2
"1238",1242,"sub10",4,4,50,12,"-",1,62,28,34,34,1,1,3533,3214,3360,422294,425827,2
